Ax,Ay,Az,pitch,roll,label
0.0,0.0,0.0,0.0,0.0,0
-1.929477,-7.178314,6.753614,172.5304,11.12606,1
-1.906321,-7.028902,6.719819,172.2532,11.09635,1
-1.82691,-6.957431,6.673661,172.1514,10.60828,1
-1.785509,-6.950338,6.644165,172.1709,10.44932,1
-1.821846,-7.063486,6.719391,172.3311,10.6064,1
-1.742944,-7.152825,6.748971,172.4865,9.873709,1
-1.732196,-7.132065,6.733023,172.4616,10.00398,1
-1.797744,-7.092757,6.759562,172.3493,10.52423,1
-1.833883,-7.084725,6.784153,172.3049,10.65364,1
-1.828553,-7.194048,6.854944,172.4564,10.37311,1
-1.82722,-7.327322,6.942672,172.6326,10.20625,1
-1.828683,-7.457606,6.962809,172.8638,10.12876,1
-1.838026,-7.452468,6.976821,172.8416,10.22161,1
-1.825997,-7.42784,6.824103,172.9514,10.27943,1
-1.833764,-7.278031,6.846975,172.6337,10.44496,1
-1.815953,-7.220827,6.771889,172.6014,10.3934,1
-1.807909,-7.127517,6.742344,172.4411,10.45616,1
-1.857972,-7.048524,6.693657,172.3285,10.94919,1
-1.909992,-7.071872,6.659938,172.417,11.22422,1
-1.899654,-7.167492,6.755656,172.5106,10.84874,1
-1.879113,-7.232697,6.829864,172.5638,10.62467,1
-1.917073,-7.240019,6.843029,172.5648,10.95759,1
-1.828828,-7.072169,6.76993,172.2915,10.45073,1
-1.836267,-7.005957,6.68978,172.2406,10.78528,1
-1.836331,-6.982221,6.723612,172.1498,10.72509,1
-1.83096,-7.028361,6.755414,172.2151,10.60757,1
-1.838596,-7.162001,6.772342,172.4788,10.54224,1
-1.851279,-7.295967,6.731683,172.7914,10.56255,1
-1.963984,-7.36178,6.770001,172.881,11.28963,1
-1.959839,-7.329751,6.793945,172.7948,11.0898,1
-1.834903,-7.325335,6.728106,172.8555,10.23637,1
-1.956299,-7.18417,6.779881,172.5157,11.45283,1
-1.91123,-7.091418,6.724589,172.3847,11.0192,1
-1.883803,-7.175969,6.75925,172.5234,10.73681,1
-1.864376,-7.243793,6.76971,172.6502,10.59373,1
-1.852337,-7.21945,6.765142,172.6066,10.58907,1
-1.847531,-7.164882,6.796322,172.4603,10.59387,1
-1.889426,-7.104552,6.784365,172.3467,10.98449,1
-1.80473,-7.168479,6.770602,172.4957,10.20057,1
-1.838416,-7.208208,6.792337,172.5534,10.49213,1
-1.820708,-7.217736,6.808508,172.5561,10.35882,1
-1.853989,-7.159066,6.792799,172.4523,10.7208,1
-1.892836,-7.128238,6.736797,172.4501,11.01835,1
-1.861247,-7.149261,6.654562,172.5843,10.74406,1
-1.883876,-7.150926,6.781247,172.4485,10.83271,1
-1.905694,-7.153137,6.802144,172.4302,10.962,1
-1.936288,-7.133938,6.760681,172.4359,11.21791,1
-1.951119,-7.233286,6.77725,172.6208,11.13265,1
-1.872227,-7.261714,6.80294,172.651,10.49636,1
-1.845321,-7.135943,6.757289,172.4418,10.62721,1
-1.919064,-6.957926,6.756042,172.0573,11.21685,1
-1.905513,-7.09591,6.840734,172.264,10.85992,1
-1.938038,-7.30997,6.908594,172.6304,10.89464,1
-1.897687,-7.437107,6.909398,172.8784,10.48365,1
-1.982769,-7.319852,6.929351,172.6309,11.30984,1
-2.0202,-7.234874,6.862514,172.5325,11.56192,1
-1.864358,-7.208242,6.808096,172.5374,10.37828,1
-1.906202,-7.034588,6.787308,172.1888,11.16493,1
-1.752283,-6.765741,6.66185,171.7193,10.46227,1
-1.885366,-6.629476,6.723812,171.3001,11.57069,1
-1.875541,-6.870145,6.787786,171.8098,10.89191,1
-1.853332,-7.194273,6.845078,172.4528,10.4362,1
-1.881897,-7.390226,6.902497,172.7913,10.53227,1
-1.959069,-7.392528,6.816296,172.8908,11.18631,1
-2.043005,-7.283568,6.787563,172.7099,11.78885,1
-1.936499,-7.238372,6.76781,172.6418,10.8761,1
-1.992472,-7.219891,6.753894,172.6201,11.50706,1
-1.975939,-7.17397,6.811466,172.463,11.26257,1
-1.978988,-7.257659,6.811494,172.6333,11.22845,1
-1.866625,-7.346816,6.901284,172.7155,10.24349,1
-1.775686,-7.288301,6.950666,172.5465,9.834409,1
-1.811911,-6.920312,6.986748,171.6965,10.50294,1
-1.363714,-7.09804,6.838259,172.2669,7.322834,1
-1.420115,-7.089637,6.730206,172.3738,8.396351,1
-1.583254,-7.083946,6.728332,172.365,9.517118,1
-1.8054,-7.226175,6.708111,172.6787,10.75984,1
-1.340197,-7.414362,6.625843,173.1219,6.777392,1
-0.877336,-7.561966,6.881806,173.1373,4.008352,1
-1.189685,-7.549733,6.783576,173.2134,6.920777,1
-1.137786,-7.561691,6.488487,173.5263,6.455221,1
-1.324129,-7.546724,6.314158,173.6748,8.052259,1
-1.21988,-7.582487,6.437572,173.6123,6.770561,1
-1.014252,-7.559106,6.355299,173.6542,5.483048,1
-0.8173975,-8.081182,6.496339,174.3003,4.082126,1
-0.8202578,-8.504392,6.465161,174.8734,4.352606,1
-1.427903,-8.443199,6.444797,174.8301,8.743275,1
-1.768358,-8.569757,6.642614,174.832,9.780801,1
-1.927093,-8.515205,6.697455,174.7234,10.36023,1
-1.670494,-7.853338,5.962379,174.4781,9.436193,1
-4.129235,-7.887188,8.062678,172.6345,22.75773,1
-2.42753,-6.742843,6.427585,171.9581,12.11776,1
-1.310778,-8.017178,5.162286,175.1355,5.536739,1
-2.846993,-6.586796,6.158582,171.3975,20.64773,1
-2.002822,-5.90778,6.432795,169.2832,11.25377,1
-1.779209,-6.262356,6.458252,170.5539,10.62762,1
-1.865162,-6.634713,6.906347,171.0559,10.96948,1
-1.73402,-7.377828,7.515767,172.0942,8.854564,1
-1.530648,-7.242185,7.844095,171.4775,7.766055,1
-1.591135,-6.965861,7.999799,170.6181,8.654007,1
-3.874165,-4.905403,6.104809,164.9057,33.85238,1
-1.15888,-6.575596,8.082125,168.9138,1.288657,1
0.5686012,-6.330549,7.97132,168.6155,-6.464824,1
0.1511286,-6.601483,7.841266,169.7451,-0.0667493,1
-0.7271653,-7.186363,7.463988,171.6837,5.596637,1
-1.145733,-7.587759,7.322296,172.7418,5.59465,1
-0.6311983,-7.427546,7.447371,172.3044,2.504364,1
-0.3786647,-6.945762,7.703096,170.8748,1.633034,1
0.09567286,-6.089099,7.465358,168.4421,-1.547609,1
-0.186173,-5.169243,7.251498,164.4419,1.850154,1
-1.274769,-5.977165,7.402737,168.0026,9.558988,1
-2.7105,-7.926314,7.941533,172.2781,15.10999,1
-2.53792,-8.264563,8.473071,172.8017,11.63906,1
-1.767536,-7.345356,8.539517,170.8492,7.761736,1
-1.16194,-5.842437,8.110806,166.0115,5.715389,1
-0.681937,-4.628139,7.493664,159.8357,3.545728,1
-1.217349,-4.909945,6.9174,163.6872,9.453761,1
-2.225684,-5.808192,6.855935,168.1407,15.61415,1
-2.581916,-6.855163,7.176355,171.0481,14.76872,1
-2.216674,-7.551453,8.56549,171.4072,9.967471,1
-1.148529,-8.005648,8.871473,172.0915,3.73892,1
-1.12211,-8.120991,8.436209,172.6993,5.466835,1
-1.208879,-7.585993,7.736623,172.3358,6.695566,1
-0.9791803,-7.238561,7.51504,171.8263,5.007829,1
-2.268494,-7.076285,6.466649,172.6568,16.15802,1
-1.63374,-8.12029,7.107764,173.7927,7.240133,1
-0.6113438,-7.339813,6.664703,172.892,1.610491,1
-0.7471966,-6.591634,6.869973,170.8834,4.818863,1
-1.752607,-6.223228,6.637578,170.2273,13.11877,1
-1.567616,-5.543948,7.279783,166.4284,9.307473,1
-1.264591,-5.178402,5.915826,167.567,8.885669,1
-1.537191,-5.431781,5.501215,169.3983,11.94827,1
-1.129493,-5.581317,6.081706,168.9554,6.721008,1
0.05520922,-6.01554,5.668381,171.0202,-3.112091,1
0.2023457,-6.60533,6.331793,171.709,-1.524651,1
0.1051771,-7.544388,6.617373,173.3459,-0.9162927,1
0.2345898,-7.56215,6.599566,173.4113,-1.584909,1
-1.038495,-7.22003,6.982976,172.3423,8.27944,1
-0.2542369,-8.175979,7.49542,173.5373,-0.03596543,1
-0.7512937,-8.459857,7.707926,173.8339,4.534479,1
-0.1734582,-8.43027,7.852631,173.6897,-0.09504167,1
-0.1959949,-8.306155,7.684103,173.6435,1.036629,1
-0.3793985,-7.555071,7.769462,172.1752,2.360948,1
-1.095027,-6.501796,7.984733,169.0293,7.495235,1
-2.469838,-5.696191,7.81948,166.1988,17.17572,1
-3.366602,-4.523342,8.133706,157.2997,21.68781,1
-2.102198,-4.167282,8.869471,152.5325,9.565646,1
-1.001397,-4.284767,9.200655,153.2795,3.536497,1
-0.9309011,-3.631791,9.741343,143.0246,4.942672,1
-2.294133,-2.288804,10.02555,117.2881,14.96003,1
-2.643919,-0.8487311,9.270607,97.63109,17.00487,1
-3.061765,0.1990214,9.065709,90.24614,19.55075,1
-4.520148,2.197354,9.294606,58.85147,27.06319,1
-4.322705,3.151237,9.583469,43.6629,22.48894,1
-3.415023,3.563886,9.986086,38.18264,16.11053,1
-3.545437,3.094236,9.117088,43.62248,21.09476,1
-4.44534,3.379049,6.786357,30.60053,34.35773,1
-5.144368,3.604678,6.036678,24.84072,38.10118,1
-4.846869,3.621581,6.659098,26.73111,31.44021,1
-4.576767,3.71559,7.326463,27.7554,28.03,1
-4.774999,4.143113,7.653117,24.02366,28.63431,1
-4.977187,4.946707,8.124437,18.65425,27.26943,1
-5.67776,3.12211,8.348211,43.94535,33.921,1
-5.633834,3.720009,6.644415,27.0244,37.85141,1
-4.626266,2.982432,6.812827,38.39228,30.12463,1
-4.733504,2.817789,7.427743,43.02998,30.43573,1
-4.399387,2.483938,7.23132,49.30653,29.59948,1
-4.653441,2.323262,7.295341,53.03214,31.7369,1
-3.673681,2.568602,7.575306,48.72121,22.41727,1
-1.094394,6.883834,8.650863,17.73889,1.095951,1
-2.284728,4.112766,9.219625,36.43992,15.10455,1
-4.568302,3.542103,8.013282,34.44807,32.65296,1
-2.176371,2.702725,7.679374,47.72763,9.845274,1
0.06642878,1.223355,6.507732,75.67245,-7.527133,1
-1.516879,1.04026,6.638596,80.16328,16.84369,1
-2.507066,-0.481539,7.569137,93.05778,19.66032,1
-2.733066,-1.562293,9.376558,106.156,15.44803,1
-2.875756,-2.252664,9.332815,119.2895,16.86439,1
-4.046281,-2.443213,8.280401,126.4414,28.07813,1
-5.475559,-2.763789,7.031485,137.9839,39.53566,1
-5.371397,-2.64282,6.491208,137.7033,38.01621,1
-5.081395,-2.923226,6.225057,144.1999,36.09201,1
-5.606847,-3.35964,6.928853,148.6163,35.94264,1
-6.235605,-4.072083,6.862389,157.1434,38.56241,1
-6.821955,-3.415215,5.578043,154.625,49.1817,1
-7.999246,-3.432359,3.432575,164.214,62.42544,1
-8.167873,-3.190641,3.815581,159.9204,58.58922,1
-7.310409,-5.552545,6.665862,166.9809,35.33208,1
-5.14417,-7.337129,7.505923,171.4625,21.69555,1
-3.02962,-8.636209,8.838221,173.0381,10.15624,1
-1.353561,-9.582274,8.882195,174.3677,3.418028,1
-0.6185119,-9.42734,8.587929,174.4545,1.691405,1
-0.5855843,-9.374241,8.315044,174.5887,2.641,1
-0.5145045,-8.991061,6.731294,175.261,2.597594,1
-2.29059,-9.56684,5.340565,176.6175,14.80092,1
-1.878086,-9.315742,4.818705,176.8153,9.560192,1
-0.1498956,-8.874084,4.119018,177.0132,-2.554354,1
1.739596,-7.913658,2.776289,177.4734,-13.34062,1
1.699037,-7.79812,1.056794,179.0233,-12.23221,1
1.430324,-8.157097,-0.1649622,-89.88529,-9.179886,1
1.007607,-8.79631,0.08086372,112.4425,-5.494044,1
0.7277493,-8.386891,1.00962,162.2779,-4.342488,1
1.200072,-10.75715,3.296034,174.2621,-6.328903,1
0.6914699,-12.38221,5.004284,177.1321,-2.123763,1
-0.5489843,-11.86731,3.558483,178.3167,4.550312,1
-2.781364,-10.61329,1.135341,90.86357,13.87582,1
-4.823225,-9.93742,-0.28054,-95.32834,27.66558,1
-5.387878,-8.733221,-1.51743,-157.6405,33.1041,1
-5.354863,-8.568642,-0.9719224,-173.9427,32.00481,1
-4.569093,-10.11485,0.4447538,91.16593,21.983,1
-4.911345,-11.2035,-0.4023678,-111.9888,23.44764,1
-5.880369,-10.84539,-1.327022,-162.3875,29.75842,1
-6.637977,-7.879233,-1.938863,-173.6684,43.67818,1
-7.389418,-5.500059,-2.100802,-174.3044,55.87856,1
-8.539747,-4.542544,-2.703325,-171.7877,60.1267,1
-7.365669,-4.576104,-2.414022,-173.2864,53.61281,1
-7.19605,-5.658293,-2.831908,-174.8296,46.76598,1
-6.947145,-6.756636,-3.588202,-175.4757,40.30662,1
-7.007023,-7.363417,-3.39121,-176.3858,40.37389,1
-6.835245,-6.180943,-2.840975,-175.7163,46.78698,1
-6.250013,-4.461373,-3.172081,-169.8477,49.95689,1
-6.313797,-3.302447,-4.671627,-154.4206,46.85778,1
-5.943677,-2.94448,-5.267379,-148.2166,43.40879,1
-5.630282,-3.099197,-5.423499,-150.6687,41.17636,1
-5.411873,-3.28512,-5.69776,-152.3908,38.60423,1
-5.224392,-3.493209,-5.983598,-154.0768,36.22689,1
-5.4343,-3.090932,-6.428554,-146.1556,37.35516,1
-6.269681,-2.14461,-7.453779,-122.4192,39.2755,1
-6.746078,-1.227478,-7.519746,-104.1142,42.26434,1
-6.696387,-0.8617258,-7.204042,-97.9764,43.10385,1
-5.965703,-1.109666,-6.451747,-102.6946,42.18227,1
-5.307185,-1.796537,-6.473765,-118.0223,36.84288,1
-5.081503,-2.009555,-7.447125,-119.3617,31.89253,1
-5.283657,-1.775506,-8.223774,-112.0436,31.73919,1
-5.553265,-1.815754,-7.681719,-114.2782,36.16293,1
-5.832553,-1.973059,-7.104475,-119.8698,39.44398,1
-5.825162,-1.619138,-7.216942,-111.288,38.16694,1
-5.349262,-1.241558,-7.817872,-102.6091,32.66718,1
-5.327253,-0.8706327,-8.966486,-96.29527,29.56219,1
-4.924911,-0.5570363,-9.072279,-92.9803,27.71641,1
-4.301791,-0.5307111,-8.437927,-92.55255,26.41235,1
-4.032886,-0.8042513,-7.913027,-95.48277,26.84915,1
-4.342746,-1.062975,-8.117588,-98.7317,28.27432,1
-5.048689,-1.432917,-8.491945,-104.582,31.10942,1
-5.961392,-1.308129,-8.677114,-102.3259,35.35847,1
-6.516376,-0.6376799,-8.633623,-94.70754,37.83305,1
-6.075127,-0.504185,-7.857803,-93.12551,37.90664,1
-5.433301,-1.11545,-7.521992,-101.4125,34.73969,1
-5.087893,-1.666901,-7.578099,-111.6226,32.45574,1
-5.030271,-1.801172,-7.547235,-114.2316,32.85357,1
-4.960201,-1.538458,-7.656237,-108.1497,32.23753,1
-4.991166,-0.9861576,-8.231161,-98.39484,30.58857,1
-5.09228,-0.4781785,-8.498791,-93.02342,30.81574,1
-5.254029,-0.09260983,-8.068303,-90.65225,33.81345,1
-5.448892,-0.03572202,-7.630281,-90.21615,36.37991,1
-5.244421,-0.6661388,-7.237063,-95.41909,35.86544,1
-4.974473,-2.119202,-7.484536,-122.0175,32.05537,1
-5.545999,-2.131522,-8.319318,-119.5891,32.92488,1
-6.026463,-1.795223,-8.528013,-111.9052,35.22867,1
-5.940079,-1.57827,-7.958892,-108.5345,36.75825,1
-5.790992,-1.69821,-7.531103,-112.1079,37.10414,1
-5.816567,-1.814387,-7.709664,-114.1717,36.10364,1
-5.679309,-1.764422,-7.842291,-112.651,34.89224,1
-5.587534,-1.502335,-8.017305,-106.8489,34.12887,1
-5.088742,-1.668453,-7.330228,-111.8508,33.96523,1
-4.883241,-1.769239,-6.912455,-115.2722,34.48651,1
-5.350808,-1.745952,-7.167141,-114.0228,36.44262,1
-5.760391,-1.677283,-7.503752,-111.6681,37.11255,1
-5.688609,-1.406929,-7.537626,-105.9463,36.47307,1
-5.313329,-0.9981667,-7.538912,-98.90715,34.36048,1
-4.454561,-0.8995674,-7.566168,-96.93616,28.66483,1
-3.4013,-0.4313918,-7.177939,-92.42372,23.38437,1
-2.642385,0.1525215,-7.285586,-89.74731,18.05549,1
-2.974445,2.617716,-8.700083,-51.28722,18.62681,1
-5.665491,-0.9383137,-10.86059,-96.95375,29.1344,1
-10.67475,-4.653677,-11.1565,-146.035,44.17741,1
-8.247776,-3.894605,-8.752483,-148.6846,40.38433,1
-4.785947,-1.932529,-6.991488,-115.8157,29.07975,1
-4.785994,-0.4813366,-7.289252,-96.44727,32.93372,1
-6.807909,-0.6751904,-7.602514,-95.93739,44.01978,1
-8.773027,-2.722209,-6.704271,-138.96,51.92622,1
-7.915998,-2.648586,-6.095166,-140.183,49.79166,1
-6.159275,-1.698237,-6.734771,-114.9197,38.1958,1
-5.1401,-1.616872,-7.661416,-109.9748,30.56816,1
-5.073849,-2.192687,-7.113765,-124.9815,34.57442,1
-5.405643,-3.387096,-7.106138,-146.6459,34.42355,1
-6.154778,-4.339315,-7.671658,-156.847,35.03098,1
-7.022614,-4.853901,-7.965668,-161.0607,37.58025,1
-7.182112,-5.303969,-7.23831,-165.4224,39.20221,1
-6.852082,-6.549541,-5.399085,-172.149,38.58348,1
-5.284571,-7.643839,-3.720031,-175.9253,28.94742,1
-4.574863,-8.899635,-2.470676,-177.966,24.44909,1
-4.214279,-9.62838,-1.964408,-178.7004,22.19793,1
-4.499424,-9.792609,-0.9902929,-179.3805,24.96232,1
-4.148733,-8.569528,-0.2008863,90.11477,26.28809,1
-3.674995,-10.90336,0.621352,157.2468,16.71005,1
-3.806156,-11.55147,1.092668,173.9241,18.02137,1
-3.075795,-12.10494,1.619905,177.9703,12.8465,1
-1.977422,-12.49471,2.306571,178.8091,7.132502,1
-1.510694,-12.50416,3.239594,178.7271,5.95032,1
-0.7296212,-12.57476,3.905601,178.5645,2.027242,1
0.04205112,-13.13469,3.044991,178.9733,-1.260262,1
0.3175691,-12.73239,1.87096,179.3427,-1.848598,1
-0.01757288,-11.88303,1.105196,179.5642,0.6368571,1
-0.8106407,-10.83571,1.833129,179.08,5.742373,1
2.029663,-8.665881,2.213501,178.285,-13.74848,1
1.864928,-7.957446,2.507044,177.6954,-12.52317,1
1.373036,-7.110559,2.610956,176.9886,-9.375473,1
1.318298,-6.469676,2.726716,176.2167,-10.76168,1
1.762504,-6.368712,3.112991,175.5922,-15.02826,1
3.026364,-6.404524,3.805716,174.7043,-24.45604,1
4.331733,-6.452981,3.384536,175.3605,-33.37204,1
4.509036,-6.167017,2.873425,175.7038,-34.50193,1
4.339679,-5.765126,3.083229,174.6791,-33.57096,1
4.239879,-5.368371,2.99921,174.0457,-34.9431,1
4.626133,-5.179399,2.708858,174.256,-39.61497,1
5.437366,-5.550543,3.027722,174.4151,-41.3648,1
5.796396,-5.589459,3.342668,173.9283,-41.96621,1
6.029805,-5.356776,2.706736,174.671,-46.28802,1
5.978622,-5.034644,2.106022,175.3257,-48.45343,1
5.762919,-4.95052,1.952253,175.4892,-47.16286,1
5.761067,-5.042615,2.068236,175.3848,-46.35931,1
6.187969,-5.299073,2.393515,175.1723,-46.83406,1
6.689737,-5.794145,3.103312,174.7897,-45.10754,1
7.003723,-5.808377,3.212527,174.6089,-46.86771,1
7.37491,-5.445622,2.577235,175.1101,-52.15259,1
7.029568,-5.008373,2.168817,175.129,-52.6844,1
6.515868,-4.706926,1.854825,175.2789,-52.16442,1
6.250973,-4.900912,2.282701,174.6383,-48.11663,1
6.908397,-5.197208,2.989418,173.7837,-48.9782,1
7.823336,-5.765087,3.245105,174.4581,-49.99181,1
8.280118,-5.896283,3.084571,174.9684,-51.66163,1
7.661688,-5.569951,2.728403,175.0259,-50.92909,1
6.923493,-5.156173,2.353852,174.9958,-50.56869,1
6.798202,-5.226907,2.838414,174.1288,-48.17113,1
7.567739,-5.569603,3.509024,173.635,-49.00695,1
8.212627,-6.114964,3.644355,174.4566,-49.10846,1
7.991375,-5.804187,3.36754,174.3385,-50.29499,1
7.774454,-5.36018,2.646514,174.8291,-53.30111,1
7.405985,-4.976239,2.103537,175.2391,-54.39323,1
6.899072,-4.932327,2.068348,175.1976,-51.61984,1
7.557044,-5.411562,2.528216,175.1316,-51.51158,1
8.421215,-5.959509,3.301301,174.7486,-51.02381,1
7.793927,-5.553436,2.822089,174.8379,-51.48328,1
7.538344,-5.304675,2.657395,174.6611,-51.94601,1
7.232036,-5.179636,2.828109,174.0316,-50.42799,1
6.986668,-5.103485,3.097039,173.2721,-49.0338,1
7.025882,-5.287356,3.342041,173.243,-47.94308,1
7.728806,-5.651155,3.383539,173.9851,-49.93194,1
8.044599,-5.853435,3.429827,174.3257,-49.95161,1
7.599216,-5.68673,3.414464,174.0184,-48.53904,1
7.119762,-5.601958,3.424989,173.8174,-46.76532,1
6.969373,-5.649001,4.056098,172.8156,-44.29504,1
7.145458,-5.773888,4.515544,172.3533,-44.00938,1
7.275671,-6.004426,4.759693,172.5346,-43.27762,1
7.672741,-6.26856,5.190634,172.5349,-43.2459,1
7.818695,-6.169394,5.418678,171.9569,-43.68547,1
7.752832,-6.056616,4.908264,172.446,-45.26315,1
8.188869,-6.197213,4.38023,173.5358,-47.91133,1
9.152609,-6.596879,4.302091,174.3784,-49.91449,1
9.598248,-6.845835,4.616547,174.4229,-49.29684,1
9.93591,-6.936804,4.722096,174.4504,-49.98421,1
10.55543,-7.112176,4.39474,175.0786,-52.18039,1
11.28851,-7.586976,4.122561,175.9172,-52.86977,1
12.07332,-8.032484,3.921639,176.5347,-53.7522,1
12.47782,-8.337791,3.228565,177.3461,-54.62193,1
12.9704,-8.498514,2.469914,178.0494,-56.07384,1
13.22822,-8.698507,1.948056,178.5315,-56.11135,1
13.20648,-8.73414,1.749357,178.6981,-55.98954,1
12.82755,-8.723297,1.087365,179.1898,-55.39801,1
12.62328,-8.682878,0.3436673,179.7433,-55.37315,1
12.13767,-8.593763,0.1433777,179.8914,-54.42983,1
11.36804,-8.443995,0.08073569,179.9366,-52.93041,1
10.64591,-8.0977,-0.2832811,-89.74524,-52.47116,1
10.21399,-7.504753,-1.288272,-156.1425,-53.37585,1
9.982106,-6.814229,-2.342176,-171.3987,-54.31388,1
9.863084,-6.242964,-3.045586,-174.0616,-54.97745,1
9.208442,-5.924174,-3.532086,-173.8982,-52.52705,1
8.682059,-5.885776,-3.784794,-173.7235,-50.4176,1
8.880864,-6.089859,-3.610945,-174.4577,-51.52937,1
9.169386,-6.383293,-3.289157,-175.3981,-52.07302,1
8.747713,-6.21783,-2.959114,-175.6627,-51.73331,1
7.961743,-5.673681,-2.930473,-174.8075,-51.06493,1
7.03442,-4.752945,-3.422504,-171.074,-49.65636,1
6.380611,-3.923013,-3.95492,-164.9901,-48.19445,1
5.629981,-3.320487,-4.488454,-157.2796,-43.78421,1
5.234028,-3.200382,-4.404564,-156.7751,-43.38351,1
5.170953,-3.37865,-3.783844,-161.6981,-46.06855,1
5.119271,-3.550709,-2.813438,-167.3815,-49.32977,1
4.930377,-3.52908,-2.012389,-170.8939,-51.07769,1
4.263654,-3.286647,-1.341666,-173.1031,-49.96614,1
3.770164,-2.739417,-1.121912,-171.5077,-52.53039,1
3.381036,-2.268619,-1.153165,-167.0308,-53.44093,1
3.077254,-1.854637,-0.8718778,-165.8203,-57.65302,1
2.898956,-1.733185,-0.4047172,-172.7811,-58.9295,1
2.836425,-1.72437,0.4716334,81.10159,-56.2227,1
2.323397,-1.625201,1.590342,127.1458,-40.41509,1
1.952727,-1.34363,2.327911,122.928,-32.59126,1
1.809781,-1.041598,2.828337,110.7851,-29.30482,1
1.434667,-0.7003342,3.908731,98.7371,-16.90562,1
1.046401,-0.6275877,5.04972,95.09363,-9.52763,1
1.191748,-0.8661791,5.891619,97.50924,-11.23351,1
1.583623,-1.548918,6.624628,110.4603,-13.58317,1
2.478861,-2.238546,7.734437,122.9477,-18.15017,1
3.978768,-3.377019,8.665287,142.5558,-24.12861,1
4.708099,-3.871723,8.573206,150.0208,-27.65616,1
5.87804,-4.492795,9.36182,154.9851,-30.33622,1
6.867238,-5.217283,10.2072,159.3178,-31.32688,1
7.863324,-5.784471,10.34134,162.7653,-34.37246,1
8.661815,-6.042985,10.29766,164.3242,-36.71523,1
9.331898,-6.204578,9.994045,165.5668,-39.22312,1
9.449141,-6.517916,9.740373,167.1703,-39.02013,1
9.825012,-6.964359,9.892433,168.5327,-39.14205,1
10.70368,-7.805004,9.63237,170.9584,-41.31703,1
11.39201,-8.347361,9.301598,172.3865,-42.82661,1
12.0974,-8.795393,8.892096,173.4563,-44.57527,1
12.85195,-9.09774,7.900873,174.5676,-47.72397,1
13.39074,-9.044041,6.864777,175.2485,-50.63138,1
13.61522,-8.930059,5.944953,175.7885,-52.43616,1
14.04124,-9.142181,5.492336,176.2778,-53.09933,1
14.76545,-9.407099,4.944634,176.8297,-54.70719,1
14.76515,-9.699579,4.601209,177.2225,-53.87786,1
15.06853,-9.887621,3.561862,177.9265,-55.42027,1
16.1505,-9.557627,0.4888217,-90.2899,-59.73145,1
16.12056,-9.26675,-0.2764292,-157.3049,-60.31108,1
15.87426,-9.064745,-0.6670592,-173.9094,-60.23166,1
15.77138,-9.051952,-0.5959254,-178.1814,-60.05477,1
15.49786,-9.251663,-0.6715158,-179.2052,-58.76295,1
15.24273,-9.4632,-0.476731,-179.609,-57.80732,1
14.57202,-9.332927,-0.5734825,-179.6042,-57.02462,1
14.09549,-9.294971,-1.077109,-179.287,-56.09887,1
12.84225,-9.182105,-1.588236,-178.9299,-53.60066,1
12.21935,-9.212375,-2.038284,-178.6364,-51.72277,1
12.22164,-9.329477,-2.816983,-178.1661,-51.10424,1
11.98159,-9.139683,-3.634749,-177.5222,-50.29757,1
10.92679,-8.702579,-4.031324,-176.9581,-48.01767,1
9.772446,-8.347299,-4.247186,-176.5199,-45.28878,1
8.975691,-7.929873,-4.258056,-176.1363,-44.44608,1
8.255763,-7.238339,-4.736621,-174.7914,-43.157,1
6.915687,-5.745078,-5.402422,-170.5816,-41.00742,1
5.934337,-4.96652,-5.656578,-166.823,-37.06249,1
4.875569,-4.321172,-5.779373,-162.5012,-32.4133,1
4.706047,-4.163426,-5.167228,-163.4235,-35.80927,1
4.897101,-4.170677,-4.080453,-166.8781,-41.59094,1
4.837126,-3.939055,-3.695634,-166.7051,-42.49789,1
4.186471,-3.491493,-3.83825,-162.3844,-37.75719,1
3.749707,-2.817423,-3.645792,-155.3846,-39.57162,1
3.465182,-2.571937,-2.230911,-161.6963,-47.16218,1
3.561568,-2.038205,-1.938584,-154.7386,-53.93356,1
3.346843,-1.306821,-2.325188,-125.4794,-50.76685,1
2.774219,-0.7810049,-2.382335,-105.9432,-46.2085,1
2.455089,-0.6710988,-1.572418,-107.6661,-58.33237,1
3.035015,-0.8769215,0.3237019,68.86822,-70.27608,1
2.716013,-0.6860997,1.303764,95.55518,-56.2271,1
2.101159,-0.629416,2.234718,97.9279,-35.92358,1
1.748128,-0.4069495,3.349122,93.40587,-23.58037,1
1.790953,-0.3154199,4.046109,91.81647,-22.83128,1
2.291872,-0.3805244,4.739299,92.0927,-26.24741,1
2.609236,-0.1633658,5.578784,90.71426,-24.86153,1
2.063691,-0.213224,6.541032,90.60612,-15.32809,1
1.32217,-0.908036,7.363386,97.4213,-7.925272,1
1.628798,-1.519878,7.718013,107.5023,-12.17439,1
3.043216,-2.215125,8.431557,120.5532,-21.31424,1
5.090119,-3.053328,8.983438,135.7983,-30.61604,1
6.97911,-3.674083,8.807169,146.6882,-38.48515,1
7.918226,-4.258432,8.40038,154.9586,-41.24331,1
8.478018,-4.580493,8.668588,157.6899,-41.0964,1
9.260809,-4.691535,9.087586,157.9027,-42.56289,1
10.18015,-4.932978,8.915806,160.2008,-45.85325,1
11.11568,-5.309373,8.669952,163.1383,-48.35125,1
13.61893,-6.083307,7.754554,168.3597,-55.13644,1
14.06192,-6.196703,7.686519,168.9285,-55.19041,1
13.67887,-6.374091,7.410935,169.8688,-54.28053,1
14.20081,-6.689581,7.056531,171.194,-55.9578,1
15.33327,-7.07551,6.872761,172.3181,-57.74554,1
15.67743,-7.432362,6.550288,173.3463,-57.84815,1
15.58211,-7.352783,5.842987,173.9604,-59.31999,1
15.84379,-7.144345,4.53131,175.0684,-62.83805,1
16.40661,-6.824684,3.59287,175.7402,-65.74727,1
15.89729,-6.714242,3.650951,175.4993,-64.15075,1
15.78252,-7.324088,3.631354,176.1875,-62.0474,1
17.0467,-7.79438,2.374886,177.7487,-64.88504,1
17.52974,-7.901179,1.72139,178.4362,-65.45764,1
16.77961,-7.412527,0.9241516,179.0842,-66.23172,1
16.55437,-6.985103,-0.4495139,-89.41939,-67.27309,1
16.59862,-6.567599,-1.952921,-154.8869,-67.50164,1
16.7246,-6.705637,-2.319795,-171.4895,-66.8186,1
16.91411,-7.334507,-1.698639,-176.7739,-65.63098,1
17.22904,-7.644354,-2.069477,-177.662,-65.08405,1
16.83193,-7.263925,-3.302424,-176.3703,-64.27659,1
16.11315,-6.890492,-4.181678,-175.0155,-62.93159,1
15.28163,-6.709146,-4.36917,-174.5648,-61.96344,1
14.38961,-6.414215,-4.680004,-173.6346,-60.65436,1
14.07682,-6.342278,-4.996534,-173.0738,-59.83418,1
13.82086,-6.28838,-5.425818,-172.3605,-58.59348,1
12.95062,-6.100727,-5.845583,-171.2442,-56.11691,1
11.7257,-5.619267,-6.106746,-169.1829,-53.88939,1
10.31155,-4.944046,-6.152285,-165.9185,-51.72003,1
9.103285,-4.446636,-6.027199,-163.1681,-49.77591,1
8.240974,-4.036775,-5.658345,-161.0737,-49.58996,1
8.002054,-3.927127,-5.045393,-162.2179,-51.90574,1
7.660406,-4.072098,-3.895569,-166.9279,-54.34248,1
7.099147,-3.853358,-3.595543,-166.586,-53.31734,1
6.572767,-3.285117,-3.70908,-160.9329,-52.77437,1
5.70675,-2.376313,-3.951147,-143.5676,-50.07822,1
4.493853,-1.339485,-3.869224,-115.8294,-48.12876,1
5.415531,-0.9267761,-3.957478,-104.9079,-52.69727,1
4.141211,0.0228808,-4.39799,-90.49124,-42.16505,1
3.499976,0.07684741,-2.672069,-89.44756,-55.38152,1
3.681597,0.2005726,-2.20689,-87.60756,-61.09694,1
3.561802,0.4362082,-1.81227,-81.29109,-63.47591,1
3.084736,0.7770343,-1.528663,-65.16681,-60.01437,1
2.626092,1.088493,-1.416461,-48.93672,-53.60576,1
3.001644,1.218431,-1.526675,-44.95498,-57.2785,1
3.395405,1.037234,-1.105316,-43.91162,-68.72784,1
3.240659,0.7459299,-0.4379377,-29.48209,-77.90009,1
2.697394,0.4953345,0.8224586,53.31446,-62.51532,1
2.534643,0.6786899,1.642136,68.24964,-50.382,1
2.25394,0.3391495,2.566267,85.84029,-39.89643,1
2.693128,0.0470787,3.789344,89.10851,-34.07859,1
2.583855,-0.4604866,4.741547,93.40155,-26.55101,1
2.536784,-0.9913996,5.798415,100.4444,-21.93397,1
3.061917,-1.190567,5.965667,103.9812,-27.75475,1
4.107186,-1.256519,5.285627,107.6621,-40.49375,1
5.108312,-1.590838,4.699027,119.9456,-48.50126,1
6.085832,-2.065869,5.040794,131.2108,-48.79436,1
8.475609,-3.169603,6.352029,148.3157,-49.76553,1
8.861573,-3.697765,6.964188,153.3641,-47.81338,1
9.588337,-4.515744,7.611031,159.4747,-46.97484,1
10.48111,-4.671756,7.862524,160.5087,-49.38187,1
11.37408,-4.468346,7.372337,160.2845,-54.10967,1
12.24914,-4.403128,6.834995,161.2448,-57.56786,1
13.44915,-5.019755,7.146514,164.5772,-56.64067,1
13.71242,-5.393915,7.249,166.3482,-56.48936,1
14.27563,-5.961507,7.414681,168.4269,-56.21666,1
15.42021,-6.166253,7.307063,169.3982,-58.77827,1
15.63693,-5.898489,5.555444,171.247,-63.22653,1
15.66536,-6.037372,5.497311,171.6944,-62.42328,1
15.9885,-6.533576,5.563582,172.7482,-61.54779,1
16.1896,-6.68097,5.057615,173.6949,-62.90143,1
16.35479,-6.617261,4.17695,174.7108,-64.99352,1
16.69058,-6.418178,3.473754,175.3489,-67.00605,1
16.14964,-6.230143,2.987307,175.7528,-66.98431,1
15.17224,-5.940721,3.196095,174.9673,-65.72775,1
14.21682,-5.340444,2.352262,175.4967,-68.26073,1
14.4161,-5.396874,1.464343,177.2213,-69.06567,1
15.36554,-5.946086,1.657159,177.3989,-67.9047,1
16.05181,-6.395832,1.204376,178.3246,-67.84226,1
16.15874,-6.301769,0.09279856,-90.12494,-68.81483,1
15.91253,-6.017883,-0.772274,-156.2766,-69.18723,1
15.76299,-5.884064,-1.024455,-172.7206,-69.28009,1
15.84412,-5.96194,-0.9689874,-177.0793,-69.09288,1
15.96675,-5.988591,-1.211899,-177.7781,-69.02968,1
15.51259,-5.815689,-1.764635,-177.0066,-68.40968,1
15.16561,-5.55519,-2.15421,-176.0927,-68.50702,1
14.57968,-5.148891,-2.02176,-175.7794,-69.46047,1
13.51741,-4.962921,-1.521779,-176.6058,-68.87907,1
12.68442,-4.90745,-1.118457,-177.4376,-68.1019,1
11.7184,-4.618848,-1.915453,-174.9318,-66.22229,1
11.38173,-4.349175,-2.97841,-171.1801,-64.36382,1
11.47174,-4.139901,-3.948045,-167.3441,-62.84384,1
12.80148,-3.710496,-6.587647,-155.2247,-58.00113,1
13.18239,-3.639057,-7.757513,-151.0608,-56.18901,1
12.0081,-3.55835,-6.979772,-152.4342,-56.83406,1
10.39831,-3.372973,-6.286145,-152.1899,-55.0159,1
9.293766,-3.080625,-6.33899,-147.2594,-51.80767,1
8.938621,-3.26252,-5.447194,-153.6179,-55.2052,1
8.375782,-3.307994,-4.046297,-160.3027,-59.18439,1
7.356999,-2.979984,-3.464434,-159.2636,-58.19615,1
6.62466,-2.168947,-4.741124,-134.5814,-49.21573,1
5.768207,-1.51548,-4.992062,-116.0004,-46.30241,1
4.544937,-1.102517,-4.359879,-106.7896,-44.16296,1
4.550077,-2.342651,-2.006643,-157.4491,-57.71915,1
5.055631,-2.528557,-1.160665,-168.8768,-62.36238,1
4.760041,-1.828043,-1.521983,-153.3693,-63.84574,1
4.002,-0.9562017,-2.238995,-114.539,-55.61439,1
2.857203,-0.3791112,-1.850822,-97.5798,-55.02961,1
1.872496,0.002187356,-0.9583053,-90.20254,-66.44183,1
1.694554,-0.1592661,0.1895844,49.23324,-69.52428,1
2.273159,-0.7365293,0.5825002,118.3369,-64.59309,1
2.84338,-1.602697,1.571372,143.8205,-48.52248,1
3.513857,-1.625308,2.597903,135.654,-48.01738,1
3.178694,-0.5374097,1.444949,103.9103,-70.68508,1
2.32816,0.6934428,0.6341763,38.25456,-60.38617,1
1.752805,1.367469,1.0438,28.21125,-38.22459,1
1.716705,1.395914,2.038645,44.54503,-31.7419,1
2.510336,0.9164043,3.133108,71.22087,-37.78868,1
3.696352,0.3242706,3.902323,84.74356,-44.52113,1
4.294525,0.2570415,4.258031,87.51829,-45.71661,1
4.553603,-0.09016564,4.513954,90.35596,-45.22372,1
4.857195,-0.8395628,5.236938,100.1303,-41.59781,1
5.511292,-1.105921,5.974337,103.2412,-42.1312,1
6.217103,-0.9390755,6.33466,99.69722,-44.72352,1
6.605443,-0.6316078,6.482202,95.40111,-45.78519,1
6.490641,-0.7145538,6.474195,96.1767,-44.72791,1
6.399093,-0.8286642,6.319564,97.88831,-45.18466,1
7.069327,-1.166044,6.160597,104.8154,-49.44825,1
8.445359,-1.814223,5.770704,122.645,-56.04802,1
9.902671,-2.448524,6.545917,134.2708,-54.88286,1
10.61176,-2.860287,6.944425,141.1738,-54.68247,1
10.48557,-3.273875,7.239778,146.9815,-52.22828,1
10.84907,-4.023706,6.832381,157.0814,-54.08989,1
12.01194,-4.818094,7.59424,161.9386,-52.9804,1
12.58997,-5.485356,8.247984,164.8129,-51.38345,1
13.659,-6.239305,7.996631,168.5682,-53.75082,1
14.10247,-6.544554,7.675211,170.0097,-54.74709,1
14.26002,-6.913558,7.275231,171.4684,-54.98867,1
14.23836,-7.241039,7.3548,172.1372,-53.79694,1
14.19882,-7.493496,7.414197,172.5952,-53.19196,1
13.96628,-7.228006,6.164908,173.4111,-56.57655,1
14.14517,-7.231664,4.735691,174.927,-59.42056,1
14.53466,-7.986752,4.4969,175.9821,-57.48425,1
14.94627,-8.320972,4.067297,176.6634,-58.3413,1
14.99171,-8.332701,3.661819,177.0215,-58.90236,1
14.59546,-8.432598,3.373701,177.3196,-57.88469,1
14.34017,-8.926237,3.418389,177.5672,-55.71825,1
14.90842,-9.243578,2.590992,178.2684,-57.46393,1
15.73463,-9.270838,1.373191,179.0915,-59.76756,1
15.41114,-8.766452,-1.033152,-89.21581,-60.31841,1
15.97702,-8.451254,-2.1114,-155.8081,-61.70018,1
16.22085,-8.449667,-2.075701,-172.7325,-61.91909,1
15.77902,-8.460044,-2.136807,-176.9109,-60.80613,1
15.37048,-7.936513,-3.234861,-176.7104,-60.6786,1
14.92358,-7.575787,-3.753583,-176.2048,-60.30292,1
14.51378,-7.744179,-3.646238,-176.5464,-59.12701,1
14.03245,-7.764729,-4.071906,-176.1898,-57.49117,1
13.4632,-7.93327,-4.347114,-176.1042,-55.44978,1
12.67805,-7.786862,-4.916903,-175.4159,-53.25117,1
11.78864,-7.263638,-5.145541,-174.4621,-52.54234,1
9.163782,-5.576971,-6.2661,-168.3995,-46.19664,1
8.453621,-5.251301,-6.211875,-167.334,-45.58596,1
8.425119,-5.320719,-5.74761,-168.6214,-47.41154,1
8.579603,-5.539186,-4.390749,-171.8709,-51.53817,1
7.729376,-5.022786,-3.880947,-171.3221,-50.64035,1
6.487911,-3.988678,-4.125196,-164.8156,-47.50223,1
5.66758,-2.949043,-4.380188,-151.5709,-46.2251,1
5.308072,-2.21149,-4.506784,-136.366,-46.31435,1
5.329525,-1.666176,-4.410942,-122.6922,-49.09401,1
5.523431,-1.806378,-3.970391,-130.5504,-52.75211,1
5.972338,-2.103594,-2.876236,-147.7569,-61.38002,1
5.978621,-1.976785,-2.602697,-147.4393,-62.07338,1
5.098527,-1.738583,-2.730038,-138.8225,-56.08279,1
4.408043,-1.499467,-2.646952,-131.2582,-54.50686,1
3.996601,-1.18291,-2.423272,-121.0881,-56.19638,1
3.559749,-0.9924401,-2.078252,-116.5922,-57.53716,1
3.082428,-0.9520053,-1.631071,-120.5752,-59.03336,1
2.885884,-1.064001,-0.6304286,-155.1395,-67.98006,1
2.63384,-0.7705783,0.06684928,72.41911,-73.89246,1
1.865138,-0.4458314,0.02928188,147.4332,-78.13583,1
1.362314,-0.1491665,0.1222422,106.1848,-82.31242,1
1.353326,0.124317,0.5620733,90.73028,-61.2532,1
1.385196,0.2932443,1.0976,85.7677,-46.53165,1
1.418303,0.04098936,1.829434,89.07526,-34.57568,1
1.593575,-0.5320394,2.676784,97.47255,-28.47095,1
1.804389,-1.151144,4.000129,108.9138,-21.98228,1
2.033066,-1.582451,5.289844,115.4979,-19.44535,1
2.251844,-1.460434,5.707441,110.8174,-21.12631,1
2.507651,-1.280891,5.208502,107.8189,-26.55582,1
3.176738,-1.356313,5.509336,108.9359,-30.4759,1
4.126913,-1.436221,5.710241,110.606,-36.70949,1
4.572753,-1.651924,5.21818,118.6763,-41.48129,1
5.468912,-2.169128,5.364512,131.8256,-44.3597,1
6.375299,-2.580346,5.449578,141.1297,-47.51785,1
7.196257,-3.054851,5.122488,151.2961,-51.43969,1
7.774992,-3.606229,5.056877,158.6241,-51.65858,1
8.487101,-4.406669,5.392422,164.2207,-50.38759,1
9.591684,-5.398661,6.151473,167.8944,-49.21306,1
10.69024,-6.490615,6.395105,171.1618,-49.53868,1
11.9866,-7.386695,7.165295,172.4869,-49.29366,1
13.17081,-8.072197,7.682856,173.3069,-49.88726,1
13.55665,-7.977816,7.675776,173.2049,-51.09005,1
13.77393,-7.851229,7.849988,172.8468,-51.0058,1
14.7902,-8.301456,7.564929,173.8036,-53.29329,1
15.16638,-8.59717,7.037569,174.6205,-54.0813,1
14.74686,-8.79859,6.954211,174.9281,-52.39581,1
14.62941,-8.804052,6.576037,175.2137,-53.19881,1
14.96277,-8.460653,5.842242,175.4123,-56.3093,1
15.41602,-8.373009,4.757377,176.1893,-58.79161,1
16.00877,-8.697658,3.367469,177.4652,-60.22411,1
15.81758,-9.351632,3.122344,177.959,-57.48766,1
15.68718,-9.437913,2.378716,178.4819,-58.18938,1
15.57916,-9.118309,0.6503441,179.5818,-59.89441,1
15.536,-9.124599,0.002773076,-89.99619,-59.53768,1
4.907131,-5.827976,6.933871,168.4995,-28.15555,0
5.020994,-6.035905,7.226365,168.8153,-27.94938,0
5.002773,-5.886774,7.118127,168.4283,-28.56609,0
4.917413,-5.687882,6.740916,168.2724,-29.38682,0
4.867343,-5.53042,6.700483,167.6817,-29.29849,0
4.833278,-5.415638,6.67601,167.2193,-29.37576,0
4.900178,-5.606012,6.736331,167.9342,-29.16608,0
5.062351,-5.77571,6.997415,168.1927,-29.14259,0
4.987973,-5.814542,7.053707,168.2559,-28.43969,0
4.933465,-5.782951,6.906172,168.3733,-28.73972,0
4.810304,-5.75171,6.905201,168.2496,-27.97272,0
4.856727,-5.646934,6.818768,167.9709,-28.94675,0
5.026349,-5.584826,6.657098,167.9991,-30.48292,0
5.160334,-5.617783,6.702872,168.058,-30.70493,0
5.159712,-5.823544,6.985458,168.4021,-29.25574,0
5.091321,-5.919875,7.151275,168.5069,-28.47012,0
4.997011,-5.773371,6.853351,168.4242,-29.28586,0
4.876469,-5.51588,6.593918,167.8075,-29.71026,0
4.855311,-5.52872,6.61166,167.8376,-29.33849,0
5.01163,-5.684561,6.894421,168.0008,-29.25117,0
5.018388,-5.802529,7.027959,168.2504,-28.69267,0
5.023669,-5.778152,6.984131,168.2275,-29.04845,0
4.917251,-5.707415,7.041408,167.8436,-28.30637,0
4.766746,-5.60713,6.926441,167.617,-28.02646,0
4.865589,-5.560511,6.755843,167.7205,-29.39254,0
4.994448,-5.58836,6.772449,167.8114,-29.81459,0
5.037436,-5.74077,6.945392,168.1407,-29.06947,0
5.071527,-5.816582,7.013767,168.3294,-29.06441,0
5.008224,-5.783461,7.023678,168.1832,-28.74045,0
4.893637,-5.649485,6.916621,167.8131,-28.68336,0
4.773412,-5.59983,6.875492,167.6751,-28.14963,0
4.799021,-5.603577,7.007066,167.4645,-28.0909,0
4.807219,-5.669158,7.242868,167.3454,-27.41558,0
4.766172,-5.601157,7.158167,167.1917,-27.698,0
4.673311,-5.445891,7.075939,166.6212,-27.61136,0
4.630343,-5.166458,7.173895,164.9699,-27.6438,0
4.503341,-5.411779,6.929323,166.7227,-26.59952,0
4.399307,-5.705604,7.246776,167.47,-24.98341,0
5.382455,-5.779059,6.616857,168.8277,-33.44663,0
6.396781,-5.603493,5.748299,169.7104,-40.87778,0
6.996923,-5.274093,5.010421,169.9022,-45.68715,0
6.888385,-5.376695,4.804403,170.6382,-43.61953,0
6.507507,-5.874602,5.358034,171.217,-37.89352,0
6.198605,-6.329478,5.970493,171.5595,-34.25313,0
6.110605,-6.382146,5.798595,171.9315,-35.27262,0
6.250214,-6.22293,5.017608,172.6677,-38.94562,0
7.72882,-5.996378,6.233743,170.1987,-42.7449,0
8.901128,-5.69194,7.203963,167.5258,-44.74103,0
9.260644,-5.213605,7.028131,165.6191,-47.45489,0
9.38464,-5.331047,7.569556,165.2856,-44.99145,0
9.374339,-5.112607,7.642065,163.9256,-45.6069,0
9.547738,-4.788651,6.356549,164.8475,-51.8208,0
10.02743,-4.820787,5.55214,166.8453,-54.89955,0
10.95001,-4.983247,5.422863,167.944,-56.78822,0
12.00127,-5.320145,4.920084,170.2927,-59.69957,0
12.12582,-5.402573,4.648941,171.1388,-59.77085,0
11.98816,-5.392654,4.600907,171.2138,-59.35341,0
11.44917,-5.050797,4.098686,171.1008,-60.75129,0
11.00737,-4.419454,3.310535,170.6819,-64.42858,0
10.85921,-4.232888,2.901611,171.1091,-65.15929,0
11.14898,-4.610021,3.821105,170.1632,-60.81116,0
11.32033,-4.614299,4.547484,168.2935,-60.42229,0
10.9572,-4.170269,3.429918,169.3175,-65.00275,0
10.34029,-3.549296,2.67827,168.518,-67.82382,0
9.918512,-3.456901,3.237349,165.3789,-63.64822,0
9.567064,-3.464328,4.100766,161.7896,-59.38187,0
9.163168,-3.403337,3.989812,161.6068,-60.04659,0
8.783867,-2.777568,2.660226,162.1579,-68.59686,0
8.076725,-2.319456,1.342017,167.8539,-73.33472,0
7.987926,-2.012794,0.8185345,170.0255,-75.78351,0
8.1004,-1.884054,0.8169507,168.189,-76.09925,0
8.225484,-1.749517,0.3945767,173.6774,-78.2242,0
8.354177,-1.509646,0.2098594,93.69057,-79.04226,0
8.172211,-1.61282,0.1368605,156.8246,-78.49501,0
8.06028,-1.753535,-0.1345761,-93.07239,-77.25654,0
8.298054,-1.524753,-0.3694308,-150.4188,-79.74178,0
8.120472,-1.352636,-0.3168141,-166.1458,-80.63561,0
7.937811,-0.9648411,-0.4975903,-153.9065,-82.73132,0
7.525833,-0.5410841,-0.9827188,-118.2446,-80.68226,0
7.072686,-0.05446671,-1.235084,-94.60544,-79.17425,0
6.812156,0.3473092,-1.255079,-78.02197,-78.64633,0
6.761389,0.469301,-1.480943,-75.39034,-76.35187,0
7.260458,0.2196774,-1.334501,-82.91066,-80.12453,0
7.984972,0.09442368,-0.9225987,-85.85414,-84.5349,0
8.252293,0.1906015,-0.6526278,-74.81592,-85.85097,0
8.222157,0.5001545,-0.8814175,-61.67913,-82.15228,0
8.24874,0.5954993,-0.9116801,-56.51193,-82.3103,0
8.517551,0.5995832,-0.7073589,-48.16262,-84.17966,0
9.148588,0.6077869,-0.8879176,-52.73791,-83.12949,0
9.672661,0.6996203,-1.05157,-51.44611,-82.33424,0
9.882688,0.8698221,-1.494709,-52.24212,-79.27127,0
9.926216,0.9913812,-1.750942,-51.4311,-78.03609,0
9.838813,1.173918,-1.361003,-37.08074,-79.92812,0
10.06608,1.282883,-1.370955,-33.30664,-79.3619,0
10.46946,1.207773,-1.416538,-36.30889,-80.06648,0
10.53978,1.007634,-1.038278,-34.89491,-82.92784,0
10.44603,0.8229256,-0.5055737,-22.57352,-85.44891,0
10.50339,0.7929094,-0.4621802,-23.31206,-85.10118,0
10.59136,0.859027,-0.6003709,-26.8271,-84.12544,0
10.33861,1.001252,-0.3943013,-15.67161,-83.88799,0
10.03661,1.106839,-0.3050752,-10.70484,-83.25705,0
10.0437,1.257135,-0.7640032,-19.9626,-80.96862,0
9.914396,1.156444,-1.052913,-30.78569,-80.7552,0
10.00417,0.9804368,-0.7444629,-27.99297,-83.61353,0
9.821688,1.058762,-0.8518785,-28.75856,-81.64115,0
9.673941,1.149946,-0.8181042,-25.31858,-81.55044,0
9.443073,1.133238,-0.4864433,-15.93767,-82.76717,0
9.221952,0.9423136,0.09745865,7.02959,-84.22042,0
9.401902,0.9179258,0.04411683,2.704898,-84.50539,0
9.49178,1.150651,-0.5797401,-16.14218,-81.28779,0
9.440629,1.339914,-0.9673433,-22.64879,-79.29955,0
9.334466,1.301039,-0.9170007,-23.47135,-80.40804,0
9.604208,1.131507,-0.8002673,-25.42121,-82.26167,0
9.942787,1.103489,-0.6346144,-21.06516,-82.98085,0
10.02564,1.161129,-0.7619925,-23.0632,-81.9133,0
10.03198,1.139625,-0.8782326,-26.88138,-81.73722,0
10.2257,0.9618669,-0.7402969,-28.72151,-83.68509,0
10.64583,0.8545794,-0.5837089,-26.3883,-84.82841,0
10.94659,0.8690576,-0.6702573,-28.79326,-84.2153,0
10.68061,0.9858031,-0.560812,-21.55846,-83.79776,0
10.36272,1.142481,-0.5891159,-18.62711,-82.57726,0
10.18988,1.131372,-0.7506178,-23.55676,-82.21524,0
10.31905,1.250699,-0.8861628,-23.55976,-81.26851,0
10.41958,1.239231,-1.124753,-29.18736,-80.62792,0
10.33158,1.265094,-1.103597,-28.08881,-80.73443,0
10.27367,1.287721,-0.9349031,-23.76554,-81.32165,0
10.24842,1.309538,-0.8442472,-21.19202,-81.403,0
10.34916,0.958124,-0.6830391,-26.62769,-84.15199,0
10.52766,0.8320959,-0.4975683,-23.65193,-85.12879,0
10.4825,0.9945193,-0.5427789,-20.72516,-83.52599,0
10.4784,1.137477,-0.602564,-18.95792,-82.71867,0
10.30499,0.8589777,-0.7701407,-34.82857,-83.7259,0
10.56869,0.649292,-0.4187872,-26.13035,-86.49228,0
10.57177,0.4639924,-0.1477924,-11.93082,-87.79922,0
10.3391,0.5702979,0.1551866,11.67298,-86.33284,0
10.13549,0.6974307,-0.05996418,-3.162962,-85.73141,0
10.01994,0.7435791,-0.3543691,-19.86339,-84.941,0
10.12214,0.7479336,-0.4028313,-22.88488,-85.16795,0
10.16385,0.7921179,-0.2623164,-14.43577,-85.30917,0
10.08988,0.8283031,-0.1805008,-9.546455,-85.14902,0
10.00136,0.7816842,-0.07924257,-4.414065,-85.59885,0
10.11211,0.8526294,-0.2406758,-11.6564,-84.79549,0
10.2188,0.9655353,-0.7173772,-26.41755,-82.59898,0
10.14312,0.8824312,-0.6300528,-27.57494,-84.10413,0
10.0434,0.9029552,-0.529213,-23.34498,-84.09107,0
9.921503,0.9386124,-0.6674073,-27.36136,-83.14135,0
9.812019,0.9960093,-0.8150819,-30.19377,-82.23358,0
9.651771,0.8577281,-0.6419094,-29.89527,-84.05205,0
9.733812,0.8177709,-0.5788641,-29.02353,-84.27295,0
9.890793,0.7395468,-0.6726375,-36.41154,-84.24411,0
9.840256,0.8492776,-0.9313111,-39.83027,-82.18008,0
9.558273,0.8982582,-0.8541231,-35.85938,-82.57153,0
9.586538,0.8799772,-1.016187,-41.46781,-81.80659,0
9.649269,0.9095243,-1.044133,-40.85767,-81.77261,0
9.537462,0.9348677,-1.061894,-40.37579,-81.47055,0
9.504123,0.9968687,-1.224351,-41.65302,-80.23358,0
9.598141,0.8489647,-1.155431,-46.80917,-81.80755,0
9.621645,0.7958279,-1.007118,-45.32581,-82.69778,0
9.830429,0.7771567,-1.16397,-49.95885,-81.7241,0
9.852099,0.8461105,-1.424049,-52.17035,-79.97506,0
9.708478,0.8130709,-1.334642,-52.29687,-80.99106,0
9.703098,0.8407239,-1.233282,-48.75556,-81.38317,0
9.656862,0.7847893,-1.20435,-50.9645,-81.62597,0
9.736881,0.7366884,-1.145044,-51.85131,-82.20681,0
9.749703,0.7749414,-1.101487,-48.77038,-82.16401,0
9.65774,0.7683437,-1.087006,-48.89944,-82.15804,0
9.500074,0.7307813,-0.876886,-44.79488,-83.47713,0
9.645611,0.7501211,-0.8028082,-41.12978,-83.61213,0
9.762799,0.8573082,-1.059023,-43.29915,-81.57587,0
9.7077,0.9882527,-1.157195,-40.20063,-80.76715,0
9.476652,1.058698,-1.156598,-37.57821,-80.43583,0
9.528425,1.049374,-1.136697,-37.39198,-80.83524,0
9.597033,0.8584997,-0.8785348,-38.31489,-83.34492,0
9.745268,0.8125769,-0.5626031,-27.89798,-84.63921,0
9.90443,0.8316221,-0.6362505,-30.38415,-83.88281,0
9.861622,0.8758878,-0.8737318,-36.7421,-82.45488,0
9.888628,0.8528368,-0.7984283,-35.51719,-83.39789,0
10.10188,0.7824306,-0.5748982,-29.46679,-84.89353,0
10.17315,0.888729,-0.5441548,-24.4463,-84.02466,0
10.04552,1.062547,-0.8866209,-29.16457,-81.45859,0
10.09182,1.058058,-1.26703,-39.23192,-80.78971,0
10.02379,0.8598064,-0.6906086,-30.96743,-83.95345,0
9.886075,0.9727164,-0.9573518,-34.95768,-81.59201,0
9.752884,1.076361,-0.9252768,-30.61119,-81.56923,0
9.665717,0.9101377,-0.685619,-29.26666,-83.79572,0
9.782191,0.8901297,-0.4964176,-22.59499,-84.27832,0
9.940597,0.9030843,-0.7256475,-30.56204,-83.09023,0
10.11846,0.8775925,-0.8224593,-34.87285,-83.17032,0
10.19525,0.8766065,-0.8179319,-34.73183,-83.31662,0
10.18931,0.6519036,-0.6767392,-40.92328,-85.20777,0
10.29915,0.4951714,-0.5175412,-42.48183,-86.44671,0
10.18296,0.4883101,-0.4939025,-41.84858,-86.12375,0
10.30475,0.423747,-0.6406231,-53.27027,-85.58767,0
10.46448,0.3914453,-0.6844859,-57.3093,-85.67183,0
10.1831,0.6762867,-0.801443,-44.20419,-83.66415,0
9.902559,0.7831844,-0.9778777,-44.60401,-82.32971,0
9.733662,0.7398784,-0.8406257,-42.78233,-83.65463,0
9.91769,0.7865128,-0.9391909,-43.2676,-82.80237,0
10.2115,0.7999671,-1.098506,-46.50901,-82.24068,0
10.14848,0.7799871,-0.8761697,-40.9848,-83.72198,0
9.863377,0.8109052,-0.8924116,-40.6863,-82.89978,0
9.923184,0.739626,-1.031146,-48.31034,-82.58781,0
10.13027,0.6966671,-0.9940035,-49.22928,-83.31473,0
10.26823,0.6015317,-0.6722746,-42.36797,-85.55123,0
10.12496,0.5149002,-0.2937642,-23.43942,-87.07948,0
9.945483,0.5489075,-0.4613017,-35.1768,-85.58974,0
10.28354,0.5963455,-0.9621211,-53.06371,-83.92657,0
10.23472,0.6285253,-0.7379256,-43.80546,-84.8491,0
10.025,0.6976223,-0.7626811,-41.72993,-83.94884,0
9.981546,0.8244313,-0.8299221,-37.93465,-83.04653,0
9.983252,0.7896945,-0.7820889,-37.89223,-83.75803,0
10.19736,0.8384711,-0.8168175,-36.44125,-83.38809,0
10.13597,0.8919653,-1.030204,-40.35649,-81.9618,0
10.08111,0.9681866,-1.158968,-40.49636,-81.19108,0
10.04765,0.8902767,-1.00082,-39.84756,-82.71555,0
10.07879,0.7756298,-0.559057,-28.02067,-85.21468,0
10.22124,0.7577419,-0.4863249,-26.33946,-85.08839,0
10.37896,0.7460874,-0.5489463,-29.79764,-84.87426,0
10.28372,0.8419345,-0.4873886,-23.67391,-84.47993,0
10.15217,0.8389615,-0.4235166,-20.97931,-84.74617,0
10.34733,0.8364227,-0.2908312,-14.5939,-85.21719,0
10.69599,0.860927,-0.1571034,-7.647692,-85.3662,0
10.70774,0.811388,-0.003362831,0.0274694,-85.7484,0
10.8256,0.7810468,0.185907,10.22773,-85.7356,0
11.16571,0.8363092,-0.003801484,0.1778078,-85.65315,0
11.28845,0.8483292,-0.2505459,-11.50373,-85.38261,0
11.77078,0.4992399,-0.1144199,-6.239749,-88.09612,0
12.1095,0.3690186,-0.02142238,-0.5609013,-88.47331,0
12.21752,0.3921284,-0.3680772,-32.52587,-87.06844,0
12.17808,0.582858,-0.8856973,-45.57076,-84.17953,0
11.92761,0.7364838,-0.9414805,-41.83711,-84.01441,0
11.57948,0.7515468,-0.642983,-31.16681,-85.35424,0
11.22669,0.6978517,-0.4660065,-26.30356,-85.91974,0
11.22648,0.8478321,-0.8706752,-35.01828,-83.15277,0
11.12049,1.113375,-1.408186,-37.95199,-79.8175,0
10.59659,1.23363,-1.143929,-29.53835,-80.97984,0
9.883827,1.125429,-0.5822647,-17.8804,-83.15002,0
9.425514,1.022961,-0.6070485,-22.96325,-82.84135,0
9.37917,1.196661,-1.274044,-33.71883,-78.22038,0
8.429154,1.448913,-1.80884,-36.5046,-74.15829,0
7.898264,1.391137,-2.057522,-42.68379,-71.77528,0
7.506968,1.256384,-2.956466,-57.30488,-64.78062,0
7.071561,1.057496,-4.05748,-70.45806,-56.79057,0
6.657449,0.7851128,-4.101094,-78.26849,-57.37224,0
6.340239,0.5087214,-2.982533,-81.94788,-67.02856,0
5.876667,0.7448844,-3.325984,-77.86211,-58.27386,0
6.170182,1.383921,-7.148598,-73.4523,-36.17231,0
8.066146,0.9529103,-7.800786,-80.73506,-47.18456,0
12.58035,1.304844,-16.66017,-81.49025,-35.61248,0
16.397,0.187946,-18.87502,-88.59004,-42.01376,0
16.40305,-1.904887,-15.52858,-111.4363,-48.24206,0
15.27869,-2.589703,-12.43124,-124.0399,-51.7674,0
14.4607,-2.358681,-11.26725,-120.5609,-51.92226,0
13.03157,-2.074674,-9.733661,-117.6791,-53.08275,0
10.75474,-2.080885,-5.873883,-131.6988,-63.25112,0
8.738234,-2.547512,-0.7017278,96.3479,-70.28834,0
7.48173,-2.899398,7.059247,124.659,-34.94646,0
6.129717,-1.644223,9.999668,105.0977,-27.20465,0
3.969128,0.03426579,11.39557,92.31897,-15.30045,0
2.112768,1.215244,11.74096,81.30402,-7.117413,0
1.560692,1.549993,12.55454,78.68474,-6.076063,0
1.853629,1.463093,13.05781,80.4816,-8.344537,0
2.329089,1.450347,12.05596,79.92499,-11.89365,0
2.426406,1.651864,9.625578,73.45057,-15.3106,0
1.890492,1.702244,6.110823,62.60043,-18.12456,0
1.129831,1.833351,2.702062,33.60343,-19.72194,0
0.1388057,1.20892,0.770685,13.81538,10.75064,0
-0.8020721,0.4351082,0.2644973,55.07376,79.76756,0
-2.0662,-0.08335763,0.0373939,-104.19,84.0553,0
-3.330336,-0.5469652,0.460057,73.61322,76.16832,0
-4.079122,-0.7526497,1.556922,102.1256,64.2214,0
-3.124284,-0.7753405,1.441482,111.703,60.20545,0
-0.3968015,-0.8133348,0.152075,-90.49106,-30.4532,0
2.723563,-1.041903,-0.7807982,-127.9124,-67.45142,0
2.525025,-2.172844,-1.16126,-158.6113,-40.7195,0
9.453291,-2.462762,-1.547271,-164.8374,-75.42124,0
15.01728,-3.082915,-1.859252,-169.332,-77.20737,0
18.46384,-4.415901,-0.6030781,-177.022,-76.07227,0
19.32549,-5.654156,1.705934,87.99815,-71.52566,0
19.5409,-5.965515,3.647882,152.2511,-69.23771,0
19.59475,-5.61599,5.140729,165.5933,-68.12015,0
19.60821,-4.734931,5.406202,165.6761,-70.18929,0
19.61158,-4.230953,4.908736,165.5388,-72.33708,0
19.61242,-4.088798,5.484673,163.3621,-70.44009,0
19.28268,-3.898833,5.95367,160.5554,-69.38027,0
17.25735,-3.562242,5.070742,160.2259,-70.43848,0
15.7257,-2.93042,4.489084,154.9018,-71.52374,0
13.17723,-2.212222,4.997287,137.4357,-65.83784,0
10.58465,-1.906977,6.760176,121.9105,-52.10315,0
7.785317,-2.065896,9.569363,116.1176,-32.59319,0
5.006119,-2.245686,12.66167,112.6676,-16.37373,0
2.908916,-2.755707,15.80321,115.9138,-7.362508,0
1.434716,-3.608656,17.80605,126.0079,-2.860425,0
0.9835655,-4.73947,17.30299,141.5987,-2.667547,0
2.420425,-5.880496,14.29161,156.369,-11.16582,0
4.228731,-7.12463,12.05376,165.6706,-19.57026,0
5.269781,-8.611814,9.651964,171.858,-23.85798,0
6.690034,-9.436115,5.409933,176.1496,-34.30087,0
8.718644,-9.387208,-0.6299157,-89.67597,-43.97676,0
11.07173,-9.075108,-5.781458,-153.4609,-45.39851,0
11.0387,-9.201786,-7.11244,-169.6018,-42.72705,0
10.29602,-8.509809,-9.531733,-171.0139,-37.18681,0
11.07642,-7.605984,-13.37052,-166.3688,-34.70296,0
13.16054,-7.16455,-14.4613,-164.2514,-40.18896,0
14.29927,-7.350473,-12.50919,-167.0974,-46.38755,0
13.56223,-6.892377,-10.87014,-167.3472,-47.20525,0
12.66689,-5.468822,-11.28638,-158.8587,-44.76797,0
12.62981,-4.595787,-9.916214,-155.141,-50.52186,0
13.28852,-4.321863,-6.916108,-160.6762,-61.70095,0
14.11399,-3.700321,-4.68826,-162.6846,-69.88576,0
16.7889,-2.51489,-1.756472,-167.7883,-81.21946,0
18.75816,-2.426169,-0.5145354,-176.3625,-82.9567,0
19.39907,-2.703863,0.5160049,87.05284,-81.51599,0
19.55929,-3.195265,1.285401,151.7155,-79.32771,0
19.59935,-3.727523,1.413106,169.2719,-78.00381,0
19.60936,-4.602192,2.306945,172.9941,-74.2162,0
19.61187,-5.684567,3.787361,173.4804,-69.30886,0
18.25364,-6.445374,5.649651,172.6021,-62.73044,0
11.12782,-5.993147,2.690143,175.7653,-57.79899,0
9.666481,-5.60135,1.011914,178.3006,-59.11979,0
8.015461,-5.18557,-0.2713517,-89.25841,-55.6853,0
5.261177,-5.069056,0.4080096,111.6121,-40.58374,0
0.5700989,-4.082845,0.7089325,160.4391,14.5058,0
-3.010639,-2.794815,-0.393784,-89.16747,59.41403,0
-3.886071,-0.9303427,-2.671614,-91.80023,50.4936,0
-3.819421,0.2091446,-3.727693,-86.11745,42.6513,0
-3.827897,0.1151339,-0.2783062,44.35115,77.12621,0
-2.890891,-0.5565989,1.431588,91.91738,50.20028,0
0.1445768,-0.6760495,0.7906489,121.9618,-51.51174,0
3.713638,-0.526347,-1.619537,-42.75227,-63.27001,0
8.260054,0.4106999,-4.0734,-70.54606,-63.16949,0
11.08457,-0.3516248,-6.538182,-89.8795,-58.44783,0
11.42798,-1.134771,-6.423548,-106.1701,-60.47851,0
11.89092,-1.727396,-6.017802,-121.5032,-62.80344,0
13.17023,-1.466144,-7.695856,-111.3213,-58.3851,0
14.06108,-1.208696,-9.363348,-104.0744,-55.19073,0
14.54775,-1.375974,-12.48088,-102.7166,-47.25443,0
12.99408,-1.755375,-12.7072,-106.9691,-43.99788,0
10.59812,-1.796356,-11.7672,-107.7555,-40.20026,0
9.580744,-1.235584,-10.89115,-100.3441,-40.94771,0
8.873896,-0.6949611,-10.71523,-94.67165,-38.99572,0
7.714962,-0.5867401,-8.843279,-93.80373,-41.65775,0
6.728517,-0.8272368,-5.478905,-100.7156,-55.1818,0
6.217944,-0.9466175,-1.86353,-137.6941,-78.90511,0
5.77247,-0.7107063,1.380047,42.27023,-65.68494,0
5.779615,0.7255361,4.95804,67.07401,-42.6927,0
5.266049,0.9086228,6.902994,78.26379,-33.7906,0
4.595371,0.5072773,10.97515,86.3177,-19.51085,0
4.447454,0.2543106,14.59149,88.86139,-15.55729,0
4.979697,-0.2219309,16.75253,90.31541,-16.44024,0
6.204513,0.1689737,16.26209,89.49904,-22.32778,0
6.905761,0.821556,14.24866,85.74152,-27.66803,0
7.06132,1.453367,11.56538,77.11671,-33.3702,0
6.820088,1.993793,8.150808,60.3749,-42.55133,0
6.497615,2.017569,5.472783,50.18901,-51.91389,0
6.083006,1.897818,3.185395,37.87061,-62.8149,0
5.435271,1.440515,1.126749,19.83624,-75.38161,0
4.386286,0.6582068,0.3930175,30.00742,-84.00018,0
-2.330118,-1.136351,-0.1762299,106.1988,67.70995,0
-3.922441,-1.673922,1.482246,139.0863,58.2813,0
-3.665109,-2.670227,1.796309,160.901,45.20704,0
-1.058134,-2.969582,1.47619,169.0222,3.220926,0
1.491614,-3.16832,2.33349,166.7407,-29.3615,0
-0.8122265,-2.690084,2.779454,158.289,22.21004,0
5.830331,-1.992325,0.7307766,173.968,-77.65648,0
10.37479,-2.527167,-0.5283837,-86.43584,-76.44386,0
16.49922,-2.596234,-2.374864,-141.921,-77.89857,0
19.41811,-2.40638,-3.908972,-150.9656,-76.73333,0
19.56405,-2.06146,-3.900563,-145.7937,-77.4757,0
19.60054,-1.668173,-3.160448,-143.5021,-80.46513,0
19.60966,-1.993625,-1.057664,-168.3419,-83.79554,0
19.61194,-2.708853,1.170309,85.12251,-79.84308,0
19.61251,-3.212673,1.919437,149.2882,-78.42587,0
16.14315,-2.417523,3.146535,153.5123,-75.30576,0
13.49528,-1.803876,3.474724,137.5784,-72.71508,0
11.40218,-1.467308,4.246301,122.488,-66.28196,0
10.19117,-1.715361,5.890081,120.441,-55.66885,0
9.211453,-1.989261,7.884791,119.236,-45.27759,0
8.359595,-2.037984,9.825377,114.8675,-37.11575,0
7.848553,-2.324899,11.65547,116.1798,-31.55639,0
7.882401,-3.287271,14.24442,127.6062,-26.94019,0
7.445541,-4.747112,15.77692,144.0306,-23.1078,0
6.998744,-6.060175,15.86376,155.6158,-21.74935,0
6.402218,-7.031284,14.39149,163.1322,-21.5268,0
5.942439,-7.656536,11.06599,168.9427,-24.5243,0
10.58956,-8.178286,-2.42428,-88.13556,-51.29348,0
12.49115,-8.447865,-5.786524,-153.0209,-50.08014,0
11.60006,-7.669507,-8.679514,-165.8679,-42.90369,0
9.57445,-6.006075,-11.98132,-158.856,-32.12589,0
8.628114,-4.71753,-14.14094,-145.8914,-28.25547,0
8.569299,-4.731181,-13.22996,-149.3015,-31.84239,0
9.649942,-5.323567,-11.24247,-158.1832,-39.98996,0
10.28642,-5.606338,-10.33799,-161.8741,-42.28848,0
10.30009,-4.994682,-8.091759,-162.4421,-49.60739,0
9.951557,-4.34976,-5.948234,-163.1721,-55.85647,0
10.68863,-3.617513,-5.105296,-159.3209,-61.70306,0
12.33815,-3.183059,-4.070357,-159.544,-69.54449,0
14.00389,-3.26299,-2.05368,-169.8923,-76.23022,0
15.92508,-3.144707,-0.3141027,91.4822,-79.34492,0
17.61924,-3.032537,0.1387481,156.6846,-80.60371,0
19.11434,-3.081707,0.2250261,173.2113,-80.99393,0
19.48811,-3.366939,0.9989735,174.3926,-79.36411,0
19.58155,-3.75069,1.345091,174.8845,-78.06807,0
19.60492,-4.175232,0.6217813,177.922,-77.54047,0
19.61076,-4.611767,-0.05285025,-90.03198,-76.34325,0
19.61222,-4.992044,-0.1784125,-157.1707,-75.35947,0
17.83893,-5.130209,-0.3839812,-173.6042,-73.23477,0
15.10435,-4.843329,-0.828621,-176.6179,-71.14388,0
11.80445,-4.38734,-0.3400335,-178.743,-68.39609,0
8.6954,-4.436747,0.9043955,87.50108,-58.76707,0
6.998765,-4.793863,1.930172,152.8759,-49.92302,0
6.03232,-3.940425,1.017647,170.9547,-56.8824,0
3.808309,-2.764597,-0.3507227,-86.19386,-50.74699,0
1.232199,-1.522536,0.0308323,107.9588,-18.44669,0
-1.489397,-0.6194556,0.8839859,99.13901,63.1928,0
-2.372705,0.01931427,1.215787,89.62727,63.21206,0
-1.780102,0.9565237,-0.453818,-1.524721,44.29443,0
-1.125577,1.280609,-1.546384,-33.88683,21.01589,0
0.2860315,0.7816346,-0.7277698,-45.98544,-44.6748,0
2.041337,0.3731781,0.4016442,51.39045,-72.7921,0
3.214585,0.4452422,0.8869064,69.22318,-72.32664,0
4.235136,0.9121711,0.1840179,15.56505,-76.84908,0
5.596395,1.537073,-1.076277,-14.78123,-69.19355,0
7.267287,1.675342,-1.09866,-17.77175,-75.34441,0
8.042345,1.620126,-1.064752,-19.46575,-76.99521,0
8.187626,1.667375,-1.506983,-25.62613,-74.01016,0
8.856016,1.636091,-3.195918,-44.77359,-65.72028,0
10.08793,1.926348,-4.979256,-48.99223,-60.54259,0
11.432,1.704426,-6.021246,-59.2617,-61.04146,0
11.2814,1.119228,-6.391279,-73.57174,-59.63591,0
10.65657,0.6155937,-7.422913,-83.08119,-53.32904,0
10.98339,-0.5015142,-9.88229,-93.20346,-45.9307,0
10.66826,-1.170448,-12.44721,-98.58547,-38.3008,0
9.671902,-0.8833812,-13.90367,-95.0162,-32.94786,0
9.537733,-0.6751451,-14.84059,-93.18713,-32.0458,0
10.82193,-1.280748,-12.77316,-100.0089,-41.14834,0
10.4178,-1.656152,-8.714918,-112.3449,-53.62439,0
10.11207,-2.094768,-3.881007,-146.2683,-72.32626,0
9.74474,-2.279839,2.118268,72.34172,-63.78836,0
8.984924,-1.528837,6.629395,95.84431,-46.68372,0
7.760676,-1.443439,11.84228,98.53627,-28.30318,0
7.007497,-1.666298,15.58041,100.3327,-21.77204,0
7.945075,-1.526287,18.21362,98.19425,-23.32752,0
8.466774,-0.9436106,17.82147,94.12891,-26.01196,0
8.370947,0.2902231,15.20234,88.74193,-30.16767,0
8.33442,1.825111,10.46963,64.86164,-42.15091,0
7.879968,2.30939,7.318423,49.52911,-48.91917,0
7.926167,2.083899,5.417317,48.22539,-56.84327,0
7.438526,1.794092,3.60428,44.86035,-64.6514,0
7.004172,1.549257,1.468496,24.45349,-76.4654,0
6.931497,1.085823,-0.7012886,-33.5129,-76.15781,0
5.566589,0.1188253,-1.523856,-78.55068,-70.50591,0
-0.9826658,-1.366696,-1.2476,-145.9166,49.16529,0
-5.196277,-1.629156,-0.044348,93.68591,75.12451,0
-8.083039,-1.992849,4.014763,122.5452,57.47017,0
-10.95772,-1.728233,5.593375,119.5223,62.00108,0
-10.80011,-1.653101,4.725686,124.0796,66.26472,0
-6.867733,-2.410039,2.291134,157.3582,61.2719,0
-2.124546,-3.0428,0.4740226,-95.12605,9.475216,0
4.216566,-3.226129,0.04129265,-158.3795,-62.54616,0
14.45509,-3.273757,-0.2213158,-173.5174,-79.52333,0
18.3233,-4.397172,-0.2492593,-177.928,-76.30666,0
19.29035,-5.683591,-0.1844191,-179.3037,-72.68432,0
19.53211,-6.793487,0.2717255,89.8318,-69.90323,0
19.59255,-7.383404,2.818869,154.8056,-66.7634,0
19.60766,-6.879062,4.21342,169.4309,-67.35851,0
19.61144,-5.697133,4.355557,171.0926,-70.63644,0
19.61239,-4.735464,4.74304,168.1223,-71.46687,0
18.93073,-4.518391,5.962193,164.6256,-67.44842,0
17.10651,-3.902083,5.864755,160.1867,-67.28915,0
14.05215,-2.440772,3.642518,150.8138,-74.97663,0
11.82331,-1.824053,3.203676,139.7611,-72.66132,0
10.55143,-2.639525,4.555626,148.0739,-60.23747,0
10.49204,-3.778928,5.872243,157.4032,-54.18091,0
10.66573,-4.476778,5.587285,164.1697,-55.99369,0
11.36636,-4.329819,5.785393,163.1958,-57.99386,0
10.50723,-3.443736,6.901537,149.6144,-52.20828,0
9.073195,-3.444876,9.71244,141.6238,-37.52131,0
7.856365,-4.32503,14.35842,143.1342,-24.21904,0
6.514272,-5.670942,18.29913,150.1385,-16.4516,0
5.234236,-6.761594,19.28431,156.7254,-12.97409,0
5.384687,-7.790226,17.11051,163.7688,-16.54637,0
5.898148,-8.75487,14.6134,168.8353,-20.19372,0
6.868673,-8.98885,10.20389,172.6745,-29.73898,0
8.835131,-7.973545,2.820319,177.9059,-51.15273,0
9.912127,-6.624371,-3.766092,-83.94718,-50.11666,0
10.32323,-6.32299,-6.159686,-148.4503,-48.25592,0
9.957344,-6.737858,-7.564332,-164.9527,-42.92816,0
11.68307,-8.024909,-8.308741,-171.1701,-45.54173,0
13.19548,-8.088099,-8.924004,-171.9465,-48.28908,0
12.24121,-6.73561,-10.67954,-166.2471,-42.74789,0
10.56433,-5.235701,-11.72176,-155.7358,-37.65807,0
9.839849,-4.366919,-11.41489,-148.7945,-38.59697,0
9.626406,-4.120993,-9.58562,-151.0743,-44.15089,0
9.05051,-4.257034,-6.603616,-160.3694,-51.40851,0
8.053603,-3.951666,-5.089576,-162.4379,-52.21096,0
8.37719,-3.672415,-3.700114,-165.2505,-60.37069,0
9.224829,-4.168232,-1.510411,-174.5691,-65.14932,0
10.37407,-4.205996,-0.3075724,91.13926,-68.58183,0
12.04044,-3.56182,-0.5042581,-110.1711,-74.91434,0
13.81275,-3.041645,0.4198134,104.0668,-78.3903,0
16.09457,-2.712284,1.351135,152.2903,-79.61913,0
18.73317,-1.961962,0.8890488,166.0483,-84.57384,0
19.39282,-1.124355,-0.3038636,-77.55861,-86.79465,0
19.55773,-1.293836,0.2364774,110.0737,-85.87885,0
19.59896,-2.853532,1.443566,156.5315,-78.90678,0
19.60927,-5.953094,2.03803,172.2386,-69.49347,0
19.61184,-8.713974,3.06831,176.5126,-62.47519,0
19.61249,-10.64319,4.361971,177.5357,-57.98627,0
17.52116,-10.35696,4.917026,177.3308,-55.73872,0
10.7351,-8.439472,4.145394,176.6064,-44.19144,0
4.545866,-6.340423,3.372491,174.9622,-21.07213,0
1.138262,-4.492265,1.412344,176.5717,-0.03473013,0
-0.9777774,-3.478961,0.1842948,-89.8785,28.12242,0
-2.919965,-2.805452,0.708669,106.917,52.59479,0
-5.258623,-2.172001,1.944088,138.9646,63.08632,0
-6.056971,-1.142748,1.971026,119.0248,71.33952,0
-7.190296,-0.826178,0.7243955,148.0322,84.08528,0
-3.941582,-0.02877504,1.213598,101.7643,63.95708,0
-1.339139,0.3034539,0.8636428,83.17953,28.90757,0
0.7013061,0.8479935,-0.290463,-3.40509,-48.29261,0
2.861621,1.840654,-2.245354,-24.26794,-44.69145,0
4.139712,2.135506,-2.782559,-28.70086,-50.90672,0
4.811183,2.112254,-2.464356,-27.70853,-57.88109,0
6.139041,1.88378,-2.318367,-31.77681,-66.20946,0
7.456819,1.929014,-3.475977,-40.5176,-61.29662,0
8.829535,1.758962,-5.252179,-55.53541,-56.75768,0
10.16571,1.382457,-7.922836,-71.48127,-50.00485,0
11.66334,0.8861053,-10.95717,-81.72121,-45.40861,0
12.08263,0.578861,-13.04992,-85.97798,-41.62204,0
11.94145,0.9042757,-13.81911,-84.18462,-40.12629,0
11.93669,1.499186,-14.53754,-78.49055,-38.74366,0
12.33592,1.54197,-15.09962,-78.51605,-39.05821,0
13.36947,0.5075967,-13.58634,-86.39053,-46.34904,0
13.09455,-0.3687006,-11.68711,-92.83497,-49.58105,0
12.30756,-1.042075,-9.413055,-101.469,-54.01294,0
11.28661,-2.083105,-5.228102,-137.4041,-67.48022,0
10.15868,-2.413393,0.5766127,85.50644,-70.00164,0
7.33406,-2.208661,5.164794,115.5289,-42.28876,0
5.15547,-2.480695,10.83149,117.2392,-18.84473,0
3.966184,-2.527155,15.87359,112.1099,-11.37905,0
2.891345,-1.662493,18.03373,99.91261,-7.672038,0
2.498446,1.261687,15.21265,81.49165,-10.0338,0
4.426005,1.608291,11.93567,75.91656,-24.7797,0
7.254811,1.217298,9.372845,79.08784,-43.66937,0
9.703794,1.004629,6.952648,78.2247,-59.42075,0
10.10056,1.192078,5.119373,68.86668,-65.42484,0
9.300133,1.231758,3.998459,63.83089,-67.00942,0
8.394335,1.318891,3.098731,55.60844,-68.99928,0
7.625598,1.261666,2.141173,47.97096,-73.33951,0
6.772614,0.7894684,1.776088,65.17587,-74.73261,0
5.6382,0.007028073,2.140913,86.60504,-66.59561,0
3.770831,-0.8152643,1.962771,113.8886,-55.13988,0
1.567595,-1.338668,0.2051842,-99.4584,-28.1019,0
-3.734843,-0.5325795,0.2413206,56.05059,80.41235,0
-6.952734,-0.8603836,3.678568,92.16052,58.48521,0
-5.584468,-1.226048,4.379862,107.6765,46.85565,0
-6.158185,-2.746802,2.26573,155.7431,60.38751,0
-0.4944772,-3.935034,1.024324,172.5384,-17.67059,0
5.845126,-5.164034,2.299532,174.413,-52.06142,0
11.43253,-3.901886,0.9537654,176.9306,-75.18009,0
12.79527,-4.405165,-2.284449,-84.18004,-66.80676,0
17.90834,-5.299524,-1.725716,-154.0539,-73.51093,0
19.18661,-6.122861,0.3891837,95.38836,-71.68967,0
19.50618,-6.030617,-0.109204,-110.8405,-72.97334,0
19.58607,-5.738209,-0.4025921,-162.0719,-73.89468,0
19.60604,-6.245102,2.497659,91.02901,-69.61031,0
19.61104,-6.032447,3.567487,153.2667,-70.00336,0
19.61229,-5.37774,3.116684,168.8567,-73.11956,0
19.6126,-4.391655,3.007574,170.3088,-75.60611,0
18.19995,-3.768047,2.890514,169.0376,-75.57182,0
16.26841,-3.274563,2.771467,166.6364,-75.16135,0
14.27897,-3.494161,3.754452,164.1472,-68.2897,0
13.21778,-4.157786,4.790285,165.2286,-62.31652,0
11.89125,-4.294962,4.993578,165.3868,-59.78423,0
9.763966,-3.697187,5.202419,159.3648,-55.05683,0
7.79742,-3.791952,7.17418,154.0135,-39.33454,0
7.289622,-4.447712,10.77001,152.1144,-28.99881,0
6.074508,-4.974374,14.31575,150.4167,-19.14503,0
3.914026,-6.007456,18.26736,153.2058,-8.817778,0
1.799119,-7.242561,19.27637,159.4215,-2.974998,0
1.248845,-8.643093,18.36728,165.6461,-3.014513,0
3.725744,-9.530127,12.49628,171.7441,-17.52965,0
7.431694,-9.940428,4.907151,176.9339,-39.93207,0
10.63866,-10.14536,-0.8022981,-89.65958,-47.93441,0
11.69359,-9.964949,-5.136819,-154.5573,-45.36636,0
12.06506,-8.731125,-10.4528,-166.2054,-39.498,0
11.66592,-7.386579,-13.42123,-164.2128,-35.79433,0
10.81555,-6.412986,-13.04644,-161.8359,-36.40252,0
10.71429,-5.519562,-12.46971,-157.6058,-38.67843,0
10.4546,-4.830061,-9.351795,-158.6474,-46.90941,0
9.663376,-5.084327,-6.58646,-165.8253,-50.79091,0
9.539192,-4.98808,-4.674083,-169.5796,-56.05998,0
9.782881,-4.673122,-3.556737,-171.0323,-60.5546,0
10.41123,-4.326831,-2.286201,-173.3971,-66.55927,0
12.09282,-4.229485,-1.860828,-174.3458,-70.28041,0
13.86714,-3.930413,-1.084707,-176.3255,-74.83524,0
15.11518,-2.930885,-0.3555723,-178.4664,-80.49599,0
16.0377,-2.030977,-0.3564451,-175.9061,-83.82867,0
17.71025,-1.45944,-0.4033503,-172.6436,-85.81619,0
19.13709,-1.984537,0.5042969,86.36545,-83.29594,0
19.4938,-2.911285,-0.1073604,-112.3073,-80.63314,0
19.58298,-4.624385,0.2730336,106.3277,-75.12115,0
19.60527,-6.824967,1.429362,160.2611,-68.37956,0
19.61084,-8.639252,1.479623,174.3292,-64.47724,0
19.61224,-9.381923,1.395222,177.9615,-63.62295,0
17.39361,-8.985799,1.541118,178.634,-61.62521,0
13.30511,-8.01049,1.453692,178.6346,-56.79499,0
9.009514,-6.95862,1.905887,177.6493,-47.59464,0
3.211256,-5.79244,4.057001,172.4502,-10.05467,0
-2.616106,-3.98357,4.849761,160.1759,36.6345,0
-5.118016,-1.997866,3.137378,135.5053,64.074,0
-4.172298,-0.7275142,0.05710578,-40.19033,75.23987,0
-2.9321,-0.5535784,-0.668071,-90.18371,67.64099,0
-2.083355,-1.000307,0.5997253,84.39886,49.49246,0
-1.314517,-1.081463,1.189613,119.8625,30.80357,0
-0.09519447,-0.6492482,0.7534988,114.5689,-21.48915,0
0.6387966,-0.286212,1.068244,97.27557,-36.71204,0
2.253428,0.1349469,1.414482,88.79159,-60.88955,0
4.33602,0.8705102,0.412877,24.6816,-77.46396,0
5.504899,2.187457,-1.457202,-6.128553,-60.38455,0
6.062875,3.200837,-2.867439,-12.56229,-52.10205,0
6.574068,3.666069,-3.920302,-15.19338,-49.64415,0
7.8026,3.602812,-4.438499,-18.27943,-54.58697,0
9.156598,2.655054,-2.953759,-21.49888,-70.54562,0
10.01584,1.525676,-1.954096,-37.19149,-79.0837,0
11.22723,0.9757796,-3.390296,-64.73706,-71.2449,0
12.73317,1.026849,-5.940042,-72.78801,-62.56834,0
13.40773,1.321533,-8.159447,-72.62213,-56.53339,0
13.41476,1.6035,-9.944319,-71.24566,-51.49306,0
12.89399,1.318453,-10.9436,-77.18162,-48.27639,0
12.6363,1.175365,-12.60659,-80.62581,-43.53511,0
12.35281,1.633397,-13.1247,-75.48897,-42.41648,0
11.91742,1.48574,-13.07286,-77.70988,-41.86975,0
11.34889,0.6587392,-12.40628,-85.33415,-42.47238,0
10.98409,-0.1836715,-10.48529,-91.22617,-47.78148,0
10.69178,-1.135878,-7.733541,-106.0407,-56.66105,0
9.27735,-2.156834,-4.953671,-138.0029,-61.71527,0
8.022326,-2.841233,-0.9026308,98.51845,-67.80827,0
7.579283,-2.717846,4.180871,130.8943,-49.01676,0
6.834657,-2.194991,9.174131,116.4352,-30.85382,0
5.305354,-2.076847,13.61332,108.4425,-17.4781,0
4.786558,-1.235677,16.02855,97.1945,-15.30334,0
4.841812,-0.09703231,15.67528,91.35995,-17.34631,0
5.710355,0.4228591,15.62467,88.9522,-21.01351,0
6.740921,0.6408189,15.34088,87.71765,-24.8988,0
7.546236,0.9862043,13.85675,84.66605,-30.23641,0
7.133452,1.467594,11.6739,77.59299,-32.29919,0
6.139613,2.28645,8.287474,54.51525,-37.38018,0
5.257288,3.040633,5.050854,28.56957,-43.89236,0
4.785316,2.90237,2.77106,17.39973,-52.95394,0
4.399771,2.156727,1.430778,15.43032,-63.31347,0
3.858063,1.469329,-0.04632711,-10.06341,-69.81255,0
2.891249,1.001197,-1.631259,-55.71333,-47.92693,0
1.545221,0.8051556,-2.347118,-72.36984,-22.18144,0
-0.3050206,-0.2601935,-1.206279,-104.2424,41.82624,0
-3.06781,-1.223243,0.6178036,89.09484,63.69664,0
-5.798368,-1.823136,3.03288,126.0211,57.10886,0
-7.630223,-2.109579,4.566796,133.2267,56.10683,0
-8.339579,-2.576233,3.573011,151.4229,63.69596,0
-6.178979,-3.028683,2.67813,163.0588,53.96246,0
-3.006405,-4.22996,2.669888,170.4511,20.03755,0
1.115876,-5.203649,1.155889,176.6982,-24.09985,0
6.619413,-6.405949,0.1363419,-90.63816,-51.14806,0
6.407942,-7.735432,-0.04133187,-157.5951,-37.76939,0
15.67451,-8.288668,-0.859676,-173.737,-65.5064,0
18.62815,-9.136259,-2.319422,-177.104,-63.38464,0
19.36656,-10.20827,-1.580033,-178.7713,-61.49862,0
19.55117,-11.09937,1.684356,89.40329,-59.11972,0
19.59732,-10.6398,2.82367,156.1207,-60.7915,0
19.60886,-9.194324,3.203669,172.192,-64.5654,0
19.61174,-7.816617,4.022316,174.7597,-66.52081,0
19.61246,-6.401982,4.684868,173.032,-68.57375,0
18.19632,-5.116381,4.706854,169.7486,-69.43924,0
16.63561,-4.475355,4.954764,166.5294,-67.73383,0
15.30271,-3.932624,3.657433,167.6131,-71.58411,0
14.32306,-3.87595,3.293596,168.4023,-70.36325,0
13.28985,-4.441777,4.917484,166.7678,-61.05981,0
8.364063,-4.972765,9.821948,158.6968,-34.53166,0
7.634192,-6.007054,13.47181,159.7632,-24.78963,0
5.945172,-7.488464,17.24295,162.824,-14.95585,0
4.045096,-9.015217,19.02026,166.5614,-8.893566,0
2.745873,-10.02718,18.52232,169.3694,-6.261099,0
3.07648,-10.14909,14.30735,172.0323,-10.96946,0
4.811131,-9.894055,8.437664,175.1222,-24.62687,0
7.300815,-9.797975,2.323098,178.6526,-39.76733,0
9.160439,-9.267582,-2.615485,-88.13552,-44.24897,0
9.316493,-8.836905,-6.516673,-152.6301,-38.70659,0
9.436312,-7.732649,-10.21777,-164.2869,-34.83818,0
10.2348,-7.300364,-11.68174,-166.1486,-36.64211,0
10.99108,-6.878054,-12.03337,-165.4442,-38.9813,0
10.79947,-5.677129,-13.19148,-157.2063,-36.38974,0
9.469473,-4.313872,-13.53488,-142.9954,-32.47016,0
8.214008,-3.802471,-12.1447,-140.0843,-32.50762,0
7.725965,-3.61716,-9.464607,-144.8562,-39.1822,0
8.108531,-3.50978,-7.234162,-150.4964,-48.20767,0
9.252833,-3.190244,-6.364108,-149.0966,-54.73724,0
9.607144,-2.645286,-5.494773,-143.3405,-59.369,0
10.0333,-1.95419,-4.122835,-135.788,-68.29335,0
11.7254,-2.336273,-2.316395,-158.3092,-76.27573,0
15.59967,-3.293706,-0.8628117,-173.4494,-77.86282,0
18.60944,-3.755725,0.2691229,90.01409,-78.57699,0
19.36189,-3.650365,2.353145,148.8158,-76.44489,0
19.55,-3.778451,3.529563,162.1248,-74.4013,0
19.59702,-4.069046,4.525767,164.8726,-71.92887,0
19.60878,-4.962307,4.509062,169.7146,-70.55362,0
19.61172,-6.473104,3.608855,174.6205,-68.51035,0
19.61246,-8.109555,2.615265,177.3776,-65.46777,0
19.61264,-9.247703,2.296837,178.3493,-63.27895,0
16.47613,-9.464005,2.324969,178.4986,-57.53365,0
11.03049,-8.735176,2.615715,178.0185,-45.94902,0
5.515744,-6.897379,2.93261,176.2113,-27.78085,0
-0.1222284,-4.645869,3.288364,169.574,21.14495,0
-4.643586,-2.492045,2.870929,147.8783,62.09503,0
-5.224455,-1.380776,2.030354,129.5933,69.54524,0
-4.611908,-0.695346,0.514771,166.0259,83.95247,0
-4.503662,-0.8202709,0.9852184,136.1789,72.24188,0
-3.305836,-1.174719,1.923443,129.6376,48.37287,0
-1.43698,-1.209462,1.560047,134.47,23.33286,0
0.175859,-0.6273784,1.201646,108.5984,-31.46846,0
2.092803,0.01553793,-0.798527,-37.94645,-61.50111,0
6.504515,1.553531,-3.056513,-39.31709,-61.48139,0
6.352283,1.151535,-5.134743,-68.47629,-46.8091,0
7.285672,1.636418,-6.153492,-63.32476,-48.4309,0
6.989303,2.210143,-7.629222,-55.99031,-39.13323,0
7.222266,2.680382,-9.849471,-52.90197,-33.65835,0
8.44409,2.248473,-12.65987,-66.12888,-32.75457,0
10.13938,1.434805,-13.80241,-78.4893,-36.95046,0
10.80921,0.2814882,-12.20979,-87.54204,-43.36852,0
10.43617,-0.1702452,-11.05387,-90.78055,-44.01294,0
10.41474,0.4440602,-12.76884,-87.63493,-37.92678,0
10.95885,0.7376974,-14.33782,-86.05092,-36.81321,0
10.9207,0.07129831,-12.85361,-89.59021,-41.42962,0
11.28466,-0.9751705,-9.496386,-101.4773,-53.36613,0
11.67013,-1.748548,-6.550781,-122.8557,-63.35732,0
11.52948,-1.491184,-4.043868,-127.0776,-73.03664,0
10.17631,-1.730308,-0.8134453,100.1927,-79.34852,0
8.440995,-2.914167,5.038145,136.1663,-45.47828,0
7.36612,-3.572853,13.57591,132.8087,-22.5773,0
6.312701,-3.873994,18.1035,130.0714,-16.58928,0
5.709969,-2.835976,18.78155,113.8726,-16.03358,0
3.448535,0.0256601,16.5141,91.19456,-10.71213,0
3.45685,1.529127,12.90567,75.55217,-16.23932,0
4.020967,2.416755,8.649283,52.00589,-28.59151,0
4.512149,2.627888,5.694367,37.3847,-40.7448,0
4.873766,2.307175,3.87286,34.34975,-51.746,0
4.49371,1.593132,2.140775,37.85171,-64.64983,0
3.138148,1.51877,1.111598,23.50389,-57.9772,0
0.9892412,1.281109,0.7663167,24.07183,-11.29153,0
-0.6146023,0.7368684,0.7967136,57.52039,49.55677,0
-1.963667,-0.2862435,0.834839,101.7155,66.39883,0
-2.809103,-1.423686,0.4241879,156.6944,59.43268,0
-4.135561,-2.614851,1.747272,164.1133,50.87945,0
-4.722158,-3.399264,4.362112,160.1583,37.59489,0
-5.472147,-3.518154,4.843439,159.0489,42.98364,0
-4.522996,-2.669803,4.082106,149.643,42.99686,0
3.010986,-4.625465,-0.9493015,-90.26497,-40.71413,0
18.19408,-8.80003,-1.512013,-173.239,-63.53,0
19.25805,-8.333952,-1.169886,-177.6502,-67.19492,0
19.52404,-7.518924,-2.332331,-177.2664,-68.46169,0
19.59053,-8.03702,-0.7680349,-179.1637,-67.277,0
19.60716,-9.471981,3.192794,88.28856,-60.87846,0
19.61132,-9.801991,5.373518,154.4579,-59.31365,0
19.61235,-8.377943,4.907747,170.4469,-64.81652,0
19.61261,-6.517175,3.748031,173.6811,-70.90989,0
19.61268,-5.40914,3.621507,172.809,-72.50623,0
18.65067,-4.90947,3.449815,172.1967,-72.35246,0
17.84993,-4.94257,3.241692,172.8394,-71.50254,0
16.33713,-4.927502,3.423095,172.365,-69.14915,0
14.37696,-4.647204,3.789868,170.412,-66.37272,0
12.14513,-4.622021,5.036165,167.1309,-57.93658,0
9.49524,-4.507986,7.387599,160.3732,-42.75686,0
6.694147,-4.745234,10.81797,154.8164,-24.06684,0
4.60404,-5.865776,14.49294,157.243,-13.01005,0
3.145978,-7.71531,17.94355,162.7822,-7.276349,0
1.727416,-9.181462,19.19542,166.8124,-3.283579,0
0.4731539,-9.695245,17.33609,169.3954,-0.1625415,0
1.165153,-10.14511,13.2638,172.5421,-5.067696,0
3.846678,-10.49101,7.724273,175.8945,-21.3523,0
7.636106,-10.11421,-0.04055691,-89.89886,-40.74818,0
11.31824,-9.438219,-6.111762,-153.4057,-45.58784,0
12.04664,-9.075291,-7.640337,-169.0387,-45.42644,0
11.51586,-8.260911,-9.927668,-170.1986,-40.35214,0
10.89076,-4.683564,-15.68195,-142.3279,-32.79865,0
8.77145,-3.081458,-11.50006,-130.5759,-37.10889,0
9.379059,-3.122668,-9.709264,-136.4904,-44.83485,0
9.843405,-3.425661,-7.104987,-149.8063,-54.37375,0
10.97942,-3.788714,-4.284772,-163.5518,-65.62956,0
12.22589,-3.629881,-2.006727,-171.9489,-73.3183,0
13.95428,-3.231043,-0.9362294,-175.6411,-77.76149,0
16.86079,-3.091829,0.660177,86.34177,-79.60572,0
18.92472,-3.204269,2.560443,145.6535,-76.93666,0
19.44071,-2.672136,3.534701,151.9214,-76.81261,0
19.5697,-2.856933,3.356287,159.6231,-77.34689,0
19.60195,-3.842258,3.062088,168.3314,-75.3783,0
19.61001,-5.582571,1.656165,175.8028,-72.25536,0
19.61203,-7.874353,1.19515,178.3659,-66.07635,0
19.61253,-9.894593,2.84143,178.3093,-60.49525,0
18.79609,-10.32424,2.807678,178.4976,-59.67686,0
14.12619,-9.321934,1.899619,178.7832,-54.01109,0
8.70841,-7.640224,2.013778,177.9459,-43.12002,0
3.46638,-6.225006,3.478839,174.3628,-13.81936,0
-1.934621,-4.375424,3.642195,167.6461,35.31546,0
-5.621014,-2.120968,1.662927,157.7373,76.08076,0
-6.801186,-0.9127158,0.9005575,133.0538,83.47128,0
-5.341877,-1.100865,1.902278,125.7139,62.56299,0
-4.292907,-1.686598,3.201368,132.5827,43.93456,0
-2.664174,-1.640897,3.15085,130.9292,30.99872,0
-1.499226,-0.1785852,0.4878386,-24.09753,65.54456,0
0.5319975,0.8226532,-1.440257,-48.89268,-26.9076,0
2.675642,1.559584,-1.870207,-35.67427,-51.42141,0
8.20885,2.133473,-1.96692,-22.98347,-73.03884,0
9.143239,1.806485,-3.969907,-46.68028,-62.42059,0
8.72681,2.398107,-5.249966,-40.66778,-53.99018,0
8.491621,2.598087,-5.381437,-37.22411,-54.30517,0
8.996658,2.301521,-6.202596,-47.51379,-53.2628,0
10.739,1.807197,-8.760188,-65.26345,-49.25502,0
12.18195,1.209564,-11.15035,-77.96516,-46.56425,0
13.02751,0.5555779,-12.3189,-85.42462,-46.31306,0
12.53142,0.548303,-13.72973,-86.6252,-41.02996,0
10.85775,1.061836,-14.40207,-83.37138,-35.05803,0
9.38169,1.617584,-15.02445,-78.30591,-30.09555,0
8.646363,1.675717,-14.7024,-77.7822,-29.76005,0
8.870144,1.424494,-13.57323,-79.97093,-33.99268,0
8.834511,0.9109797,-12.34822,-84.43224,-36.40903,0
8.574211,0.04458851,-10.27146,-89.57542,-41.53262,0
8.600715,-1.349957,-6.617057,-115.4142,-56.51276,0
8.093784,-2.248062,-2.092403,-160.1688,-71.74774,0
7.173374,-2.302001,2.743189,66.60265,-54.29824,0
6.555411,-1.758835,7.866606,95.89302,-33.19835,0
5.42229,-1.861864,11.08677,104.2327,-22.28832,0
5.336532,-2.645387,15.64292,113.496,-16.95901,0
5.792735,-3.006467,18.62026,116.0526,-16.664,0
4.854534,-2.502377,19.36459,108.3662,-12.95012,0
4.842645,-1.243298,16.0101,96.85961,-17.9743,0
6.227711,-0.3215985,12.4762,91.75146,-30.62868,0
6.600912,0.3649219,10.04667,87.96244,-36.00207,0
5.834095,1.170417,7.284509,75.06336,-40.53093,0
4.295653,1.926647,4.036961,42.40419,-45.86031,0
3.287951,2.692109,0.03240597,4.236807,-42.49446,0
2.517083,2.797283,-1.950954,-12.42743,-30.39584,0
1.097936,2.218441,-1.459186,-16.24228,-14.56944,0
-0.5138071,0.865258,-0.3396573,3.982009,68.42785,0
-1.861255,-0.5324721,0.8721678,97.53592,54.95856,0
-3.467643,-0.9752785,0.7872634,137.2195,71.29562,0
-4.759883,-1.389445,0.8522285,154.6608,71.27149,0
-5.961017,-2.834338,2.506104,162.2099,54.66259,0
-5.909352,-4.357348,5.079741,165.0638,37.50935,0
-4.158246,-5.617969,5.572316,169.5713,23.22825,0
0.235351,-5.590156,4.264325,172.1397,-14.09955,0
5.45477,-4.195164,1.365955,176.8228,-62.4607,0
10.38684,-3.539359,-0.339063,-87.47639,-74.0321,0
15.79295,-5.293164,-1.499739,-154.6231,-70.66679,0
18.65776,-7.793022,-1.836595,-172.5586,-65.72853,0
19.37397,-9.719834,2.455193,90.333,-60.56554,0
19.55302,-10.10637,4.503179,155.4957,-59.67114,0
19.59778,-8.640785,2.883738,172.401,-66.61143,0
19.61247,-4.541429,2.846499,172.5104,-74.73921,0
19.59513,-3.810878,3.241697,168.317,-75.92947,0
16.68005,-3.032084,2.719202,165.0266,-76.52673,0
13.86929,-2.985334,3.11841,162.3425,-72.05479,0
13.19616,-3.420058,4.415796,160.794,-65.11252,0
11.91278,-3.5449,6.320316,154.7639,-55.731,0
10.13566,-3.274441,7.803806,145.12,-47.03528,0
9.152685,-3.456422,10.88073,139.0053,-35.40665,0
7.624847,-4.830699,15.94695,145.7516,-21.13007,0
5.053988,-6.483298,18.69626,155.2472,-11.38882,0
3.364409,-8.189317,19.38359,163.0597,-7.430273,0
3.552536,-9.341265,17.91285,167.9422,-10.26982,0
4.641045,-9.781882,13.54984,171.7458,-17.73239,0
6.017498,-9.777115,7.49232,175.4833,-30.03078,0
7.622159,-9.228249,1.246398,-90.69209,-41.9231,0
8.348336,-9.07128,-3.299455,-155.1438,-40.03852,0
9.761697,-9.335504,-6.982152,-169.8476,-39.30882,0
10.92128,-8.57556,-10.3485,-170.4721,-38.58705,0
10.10147,-6.905957,-13.63218,-162.7312,-31.50152,0
8.479747,-5.465035,-14.37768,-153.0554,-27.1935,0
8.074316,-4.158497,-14.00022,-139.9702,-28.92795,0
8.581684,-4.01861,-12.23769,-143.1446,-35.41079,0
9.209514,-4.495399,-9.412437,-155.0589,-44.26037,0
9.405975,-4.894717,-6.404099,-164.8709,-52.07773,0
9.668773,-4.542043,-4.45611,-168.1534,-59.11003,0
11.81859,-4.026015,-2.071016,-173.0601,-70.78644,0
14.53121,-3.707163,-0.4656801,91.52347,-76.86615,0
16.74465,-2.857116,1.088462,149.373,-80.15464,0
18.89569,-1.730618,0.3367589,171.197,-86.03953,0
19.43345,-1.651902,-0.3593361,-86.1056,-84.95943,0
19.56789,-2.406148,0.1202572,112.1027,-82.24106,0
19.6015,-4.314944,0.08034253,162.9164,-75.83051,0
19.6099,-6.054486,-1.36077,-92.54802,-70.6563,0
19.612,-8.024653,-0.02236229,111.6273,-66.09864,0
19.61253,-9.404246,1.998356,161.7497,-62.47734,0
12.15771,-7.792816,2.790092,176.2461,-53.34002,0
6.025595,-6.185941,4.333717,172.6011,-28.13691,0
0.1704341,-4.525471,5.640792,162.3663,13.78647,0
-4.354941,-2.997049,4.812957,148.9568,48.57288,0
-5.845416,-2.10857,4.078077,136.4168,56.23593,0
-6.552026,-1.419581,3.804574,119.3791,60.12299,0
-6.696356,-1.200647,4.231799,111.3798,56.1871,0
-3.877353,-0.7508702,2.325679,105.3778,58.58888,0
-1.446982,-0.6779304,0.328233,-80.01761,40.88308,0
0.5719933,-0.2772217,-0.8965717,-88.40357,-43.48292,0
2.019454,0.5519899,-2.46332,-79.4748,-38.921,0
5.437517,0.5545886,-3.246459,-81.54635,-61.63295,0
6.717603,1.463838,-3.801374,-57.74392,-58.60299,0
6.662333,1.664215,-4.857681,-58.20944,-50.43325,0
7.937794,1.723288,-6.725274,-63.57584,-47.91811,0
8.926435,1.709326,-8.248014,-67.87679,-46.05901,0
9.644057,1.481379,-8.662817,-72.96272,-47.9563,0
9.532568,0.9934357,-8.926332,-80.76615,-46.3683,0
9.637573,0.3812371,-10.06421,-86.97474,-42.80115,0
10.18097,0.05580494,-11.74031,-89.43462,-40.11439,0
10.36351,0.1378512,-12.98175,-89.29935,-37.88775,0
10.20085,0.4438713,-13.15564,-87.78098,-37.4968,0
9.750773,0.6496632,-13.10035,-86.6204,-36.23362,0
9.496399,0.965072,-13.68627,-84.45244,-34.05816,0
9.923018,1.049311,-13.42694,-83.52026,-36.94456,0
11.13939,0.2587365,-12.21109,-88.40018,-44.35968,0
11.77567,-1.851276,-8.039296,-125.0861,-59.28315,0
11.35654,-3.6088,-2.35818,-165.1759,-69.38144,0
10.9878,-4.355237,2.813214,84.88054,-59.25018,0
9.978038,-4.279682,7.929004,135.6449,-42.47274,0
7.655211,-4.052497,12.95188,137.1539,-24.41673,0
6.305966,-3.659914,17.9475,126.3653,-16.37667,0
5.589772,-2.265308,18.34751,106.8685,-16.07597,0
5.694437,-0.546575,15.37515,94.172,-21.71747,0
6.999106,0.3499778,12.57604,88.68248,-32.51774,0
7.998034,0.2903235,10.42102,88.63456,-38.45992,0
7.528319,0.5376545,7.949113,86.06448,-45.86652,0
6.818325,1.355456,4.668186,60.02614,-59.17185,0
5.556253,1.80232,2.677189,35.32107,-61.36662,0
3.230184,0.9229326,1.331804,56.75663,-64.88676,0
0.8640328,0.3957146,-1.129725,-74.65596,-16.55053,0
-3.456048,-0.8780315,0.2952561,93.02547,71.69602,0
-4.929366,-2.185746,2.142404,142.1659,54.93026,0
-4.969091,-2.900535,3.423008,154.7139,45.08685,0
-4.562432,-2.87812,2.299456,163.9287,52.01895,0
-3.453407,-2.947933,2.083211,166.4067,40.67879,0
-2.177768,-3.633369,2.946728,167.4331,19.18292,0
0.2600097,-4.481688,1.038351,176.0971,-12.64371,0
5.703347,-5.860942,-1.783863,-88.07006,-47.52431,0
19.22851,-11.08961,-1.382916,-177.952,-59.59781,0
19.51665,-11.08088,0.3330271,90.19995,-60.45897,0
19.58869,-10.40533,1.600582,156.7264,-62.11179,0
19.6067,-9.455334,2.411275,172.833,-64.09872,0
19.6112,-8.1997,2.660635,176.3212,-67.18433,0
19.61233,-6.882023,2.383597,176.8132,-70.77857,0
19.60056,-5.832344,3.887969,173.7198,-69.77456,0
17.0962,-5.744306,4.958338,171.7579,-64.3616,0
14.80734,-5.479883,5.010452,170.8135,-62.30393,0
13.05538,-4.84276,4.447077,169.5594,-63.23051,0
11.5813,-4.563171,5.78585,164.7579,-55.33365,0
10.23056,-4.9368,8.876867,160.595,-41.31916,0
8.89988,-5.877754,12.65554,160.3125,-29.04028,0
7.082207,-6.989271,15.73165,162.2322,-19.48673,0
5.658137,-8.437914,17.8115,165.7563,-14.16149,0
4.758037,-9.582979,18.38893,168.4973,-11.93842,0
4.267255,-10.37562,17.08419,170.854,-11.73292,0
5.637945,-10.80289,7.384414,176.3754,-26.28685,0
7.33334,-10.22809,0.7327998,-90.2749,-37.90099,0
8.624488,-9.244028,-4.826667,-153.9847,-39.10331,0
9.241762,-8.403652,-8.057076,-167.6251,-37.69986,0
8.843019,-7.513006,-10.54541,-167.7291,-32.88657,0
8.709217,-6.252458,-12.37956,-161.4111,-31.31912,0
9.128885,-4.421567,-12.77541,-146.879,-34.94212,0
8.839939,-4.260351,-11.49515,-148.1073,-36.4433,0
9.216064,-3.845005,-9.443965,-148.21,-44.04975,0
10.07021,-4.05875,-6.94888,-157.6667,-54.51926,0
10.92299,-3.695595,-5.364436,-159.5231,-61.78164,0
12.20101,-3.015832,-4.284181,-156.3717,-69.12928,0
14.19047,-2.445462,-2.872084,-157.9543,-77.49467,0
17.46032,-1.827021,-2.023459,-156.8234,-82.6937,0
19.47818,-0.587343,-1.297231,-131.3457,-86.3735,0
19.57907,-1.534874,-0.446412,-166.4351,-84.58865,0
19.60429,-2.81503,-0.230116,-176.056,-80.60359,0
19.6106,-4.954064,0.7612881,89.606,-73.60283,0
19.61217,-7.262926,1.883621,155.9413,-66.95369,0
19.61257,-8.847502,1.867922,173.0942,-64.01609,0
18.3005,-9.523767,2.598419,177.0101,-60.38234,0
13.15295,-9.006895,5.980893,175.3818,-45.24607,0
6.010445,-7.574034,5.104483,174.7568,-22.94368,0
-0.659353,-4.624694,3.443472,169.497,31.80171,0
-5.700831,-1.283665,1.130216,124.6674,86.9188,0
-6.523062,-0.152125,-0.0406633,-20.95709,85.90874,0
-5.987015,-0.2642833,1.663381,66.05317,68.81036,0
-5.556721,-0.6478619,3.258361,92.23129,54.44861,0
-4.829648,-0.8479042,3.852832,100.3133,47.84494,0
-2.922259,-0.3897455,2.848642,93.91222,42.16108,0
-0.05360418,0.2329634,1.211352,78.54699,-48.51405,0
2.714193,1.004549,-0.217901,2.58395,-68.39649,0
-2.077776,1.405741,-1.280905,-24.75389,58.57058,0
0.6297727,2.208139,-2.347517,-24.00822,-22.68698,0
5.506688,2.545208,-2.40767,-19.77639,-63.22104,0
7.063499,2.57381,-1.885808,-15.31446,-67.76946,0
7.790285,2.543252,-1.608099,-13.3449,-69.82249,0
7.925294,2.666695,-1.432729,-10.98078,-69.14359,0
7.479608,2.83582,-1.370929,-9.415392,-66.47197,0
7.012647,3.08101,-1.432693,-8.414768,-63.08736,0
7.012624,3.165651,-1.61872,-8.960419,-62.76699,0
7.874531,3.05932,-2.225471,-13.02294,-64.58672,0
8.632295,3.120725,-2.650097,-14.67772,-64.68652,0
8.882788,2.830815,-2.251676,-14.97442,-68.90393,0
8.850241,2.598525,-1.839627,-14.38156,-71.00964,0
9.122227,2.610482,-2.460262,-18.74858,-67.93267,0
9.220749,2.766102,-3.249286,-21.78209,-64.05132,0
8.667179,3.214416,-3.949324,-20.23455,-57.67585,0
8.133743,3.294172,-3.695173,-18.3046,-58.34327,0
8.121921,2.569412,-2.024355,-16.16476,-69.40711,0
8.683369,2.312309,-2.350223,-22.59425,-69.49642,0
9.170291,2.289333,-2.805185,-26.44638,-68.18913,0
9.302795,2.193806,-2.992547,-29.83237,-68.17838,0
9.908936,2.258226,-3.137289,-29.42166,-68.5505,0
9.711912,2.370982,-2.842138,-25.1337,-69.26917,0
9.28557,2.35428,-2.725255,-24.58938,-68.68153,0
9.128706,2.1454,-2.45003,-26.1217,-70.90721,0
9.32472,1.929775,-2.550015,-31.8359,-71.27979,0
10.61734,1.685521,-2.493274,-36.62565,-74.60672,0
10.21403,1.804032,-2.521322,-34.02501,-72.74395,0
9.348251,1.921646,-2.465486,-31.01776,-70.90884,0
8.982769,2.026467,-2.381497,-27.98058,-70.5528,0
9.185884,2.122703,-2.360499,-25.72551,-70.97417,0
9.497032,2.013884,-2.47915,-28.99578,-71.55399,0
9.689741,2.063892,-2.614756,-29.06697,-70.90325,0
9.626589,2.132059,-2.846179,-29.69278,-69.28945,0
10.03278,1.748671,-2.701126,-37.82964,-72.99976,0
10.52219,1.593567,-2.58765,-40.50576,-74.41809,0
10.46677,1.7164,-2.929185,-40.324,-71.41096,0
10.12072,1.79559,-3.158221,-40.45571,-69.64299,0
9.949811,1.754336,-2.531337,-35.37451,-73.64996,0
10.66,1.419125,-2.182356,-40.9454,-76.63686,0
11.10636,1.468085,-2.143719,-38.44923,-77.00746,0
10.63616,1.665277,-2.254368,-34.50498,-74.6757,0
9.895514,1.773832,-2.292804,-32.50736,-73.10143,0
9.717535,1.684253,-1.765513,-28.10598,-76.63648,0
10.11477,1.713932,-1.757591,-27.21272,-76.50089,0
10.40801,1.870391,-2.497214,-31.61361,-72.31255,0
10.1581,1.918484,-2.99995,-35.57502,-69.77625,0
9.99507,2.013107,-2.924521,-32.85836,-70.35868,0
9.428186,2.088837,-2.914642,-31.33908,-68.72297,0
9.072783,2.167026,-2.856507,-29.31455,-68.17537,0
8.982136,2.077038,-2.838383,-31.15569,-68.67535,0
8.968452,2.040176,-2.779982,-31.45041,-69.08697,0
8.803423,2.041734,-2.66662,-30.42778,-69.16745,0
8.744209,2.038533,-2.465898,-28.59118,-70.16254,0
8.61628,2.050302,-2.232561,-26.07138,-70.85121,0
8.460398,2.05504,-2.086239,-24.5412,-71.00165,0
8.419631,2.120868,-2.500368,-27.24285,-67.98426,0
8.718291,2.092433,-2.916343,-31.53082,-67.25054,0
9.091035,1.767495,-2.691733,-37.67803,-71.41541,0
9.649294,1.610843,-2.147163,-35.2069,-75.69131,0
9.79245,1.560906,-2.348603,-39.18229,-73.75532,0
9.535548,1.688482,-3.025645,-42.49816,-68.70504,0
9.363584,1.844276,-3.306236,-40.86843,-67.30041,0
9.527092,1.825764,-3.27044,-41.0045,-68.71857,0
9.867844,1.551788,-2.677905,-43.12621,-73.91362,0
10.05,1.438403,-2.149093,-40.17707,-76.54243,0
9.899808,1.537548,-2.447846,-40.93093,-73.09943,0
9.69347,1.626978,-2.955287,-43.64113,-69.82449,0
9.647272,1.744505,-2.830755,-39.14566,-71.03042,0
9.957144,1.639213,-2.566188,-39.19299,-73.64747,0
10.17288,1.300446,-2.254042,-46.62222,-76.518,0
10.41895,1.224733,-2.23167,-48.64037,-76.46917,0
10.18238,1.195031,-2.520565,-53.26369,-74.12806,0
10.04244,1.386922,-2.664614,-48.34061,-72.89391,0
9.772224,1.564182,-2.519266,-41.21899,-73.02052,0
9.429935,1.635432,-2.596055,-40.0842,-71.58005,0
9.665785,1.631696,-2.758904,-41.70937,-71.54713,0
9.787416,-0.6222015,0.9087237,128.7709,-84.63775,0
9.543268,-0.6008719,0.7102112,134.0747,-84.71064,0
9.306257,-0.8199959,0.4163744,156.8796,-84.13338,0
9.455299,-1.140533,0.5871238,160.5526,-81.59848,0
9.564386,-1.267354,0.8704285,156.8351,-80.38355,0
8.923676,-1.112312,0.851472,151.6042,-81.15,0
8.620743,0.110897,-1.06173,-69.95713,-81.20387,0
8.818848,-0.1536366,-1.111184,-93.36654,-82.60406,0
9.28676,-0.6219958,-0.6890002,-135.8894,-84.24374,0
9.764666,-0.9635421,-0.3105152,-163.9752,-83.71463,0
9.729715,-1.129733,-0.2805374,-169.6399,-82.86999,0
9.483952,-1.131776,-0.6698819,-158.1881,-81.61215,0
9.386598,-0.8611439,-1.244861,-131.8308,-80.11333,0
9.538233,-0.5564597,-1.616654,-112.0846,-79.3737,0
10.31886,-0.4555225,-0.8873004,-120.2881,-84.59686,0
10.45005,-0.4191413,-0.9364944,-116.8293,-84.36077,0
10.45412,-0.2933287,-0.8608059,-110.1532,-85.22936,0
10.12833,-0.3660233,-0.70721,-119.493,-85.64355,0
9.887071,-0.3051884,-0.5736414,-118.9775,-86.49332,0
9.699264,-0.1499188,-0.5097232,-105.5068,-87.04063,0
9.523026,-0.04825361,-0.5206785,-94.99081,-86.82781,0
9.423301,-0.07131989,-0.6706607,-95.67148,-85.58515,0
9.86883,-0.2171473,-0.9469778,-102.5522,-83.88876,0
10.1508,-0.5247474,-1.292587,-114.2567,-81.44462,0
10.3021,-0.8763821,-2.061337,-119.7633,-76.31086,0
10.85348,-1.055869,-3.533824,-115.0748,-69.27367,0
11.40253,-1.440119,-4.762063,-119.2137,-64.99353,0
11.37998,-2.213142,-6.202179,-131.1764,-57.93449,0
12.09439,-2.794258,-8.284237,-135.6118,-52.502,0
14.40982,-3.449502,-8.756269,-145.2974,-57.58864,0
14.92045,-3.421179,-8.536695,-146.1075,-58.83874,0
14.16823,-2.875402,-8.393814,-137.3082,-57.78311,0
13.17393,-2.390602,-8.392211,-127.5859,-55.93782,0
12.37409,-2.45615,-7.084577,-133.7378,-59.62798,0
11.33197,-2.968136,-4.61366,-153.4675,-65.86802,0
10.28674,-3.39062,-1.801645,-170.5043,-69.90628,0
9.705808,-3.393888,0.3612232,88.49937,-69.46391,0
8.996739,-2.701584,1.794379,142.6275,-69.03482,0
8.327464,-1.560652,3.134889,122.1017,-65.04606,0
7.203064,-0.3344979,5.136381,97.64796,-49.63548,0
5.42439,0.1749493,7.518596,90.85435,-30.14468,0
4.279418,0.5483153,9.913393,88.11676,-19.95923,0
4.196084,0.9074132,11.50329,85.47548,-19.04179,0
4.789362,1.167775,11.94925,82.8916,-22.29517,0
5.348886,1.430387,11.0462,78.58005,-27.02554,0
5.93768,1.785139,9.913628,70.8253,-32.24337,0
6.436826,1.854075,8.781143,67.23433,-37.48309,0
7.139812,1.777936,8.018583,66.88782,-42.81298,0
7.983541,1.819953,6.953461,62.31486,-50.35345,0
8.720599,1.798135,5.607994,56.97446,-58.6539,0
9.301703,1.810637,4.680858,51.46421,-63.50342,0
9.262027,1.934072,3.825983,42.43029,-66.32738,0
8.715208,2.122947,3.145395,32.83709,-66.86158,0
8.885559,2.064223,2.612526,29.27347,-70.42677,0
9.558421,1.724529,2.502652,36.62342,-73.24188,0
10.17735,1.467223,2.762488,46.68483,-73.04163,0
10.33387,1.210762,2.935186,56.72196,-72.88918,0
10.11982,1.155625,2.746722,57.12346,-73.82339,0
9.850824,1.206484,1.931067,44.96237,-78.07484,0
9.74048,1.370034,1.619414,35.0033,-77.90196,0
9.745216,1.173895,2.010166,48.20357,-76.10917,0
9.766152,1.049443,2.362836,57.27132,-74.67956,0
10.0551,1.140434,1.969769,48.35664,-77.8808,0
10.10758,1.152408,1.413611,38.0731,-80.54078,0
9.896249,1.004567,1.265594,41.68848,-81.05515,0
9.838028,0.7826545,1.813972,60.47971,-77.82265,0
9.458956,0.6373939,2.637005,73.18104,-72.34505,0
9.046358,0.8686306,2.638059,67.0667,-72.53605,0
8.900112,1.107801,2.063714,51.85843,-75.93773,0
8.935377,1.239419,1.424528,36.2961,-78.84184,0
9.393106,1.304646,0.973836,24.67808,-80.71095,0
9.846916,1.207826,0.6977588,20.0174,-82.46535,0
10.11659,1.057926,0.6161699,21.62678,-83.47485,0
10.20735,0.9450333,0.6963292,28.07148,-83.53413,0
10.11692,0.8773058,0.7504864,32.68232,-83.49889,0
9.999138,0.896287,0.8035299,33.74043,-83.01492,0
9.937372,1.012363,0.4612519,18.09139,-83.63105,0
10.03506,0.9605772,0.3972302,16.60543,-84.24046,0
10.22827,0.9619962,0.3884074,16.0506,-84.24796,0
10.22809,0.94619,0.3466974,14.72144,-84.42678,0
10.12749,0.7447167,0.3380655,20.28717,-85.71712,0
10.18135,0.5058051,0.328725,31.06104,-86.98992,0
10.21815,0.3580903,0.2384029,31.95715,-87.91457,0
10.4159,0.1523704,0.05960073,7.989288,-89.54195,0
10.60899,0.08837083,-0.1107954,-48.13264,-89.03112,0
10.77577,0.009523148,-0.3598943,-81.29352,-87.65663,0
11.04193,-0.0981757,-0.8279862,-94.33717,-84.9014,0
11.15335,-0.2669568,-1.038383,-105.1534,-84.10886,0
10.82029,-0.366613,-0.5361261,-132.1187,-87.09265,0
10.34557,-0.3663879,-0.2794793,-148.4849,-87.67015,0
10.11915,-0.3340099,-0.5493087,-125.6803,-85.92055,0
10.15771,-0.2756371,-0.6185617,-115.9611,-86.11382,0
10.22302,-0.2161527,-0.5963706,-110.8699,-86.53213,0
10.31346,-0.237517,-0.553074,-114.4828,-86.68846,0
10.33019,-0.3125661,-0.3770901,-132.914,-87.42918,0
10.23561,-0.3582631,-0.1660986,-158.2705,-87.83601,0
10.01804,-0.3786657,0.03030141,85.59848,-87.71304,0
9.999557,-0.2275446,-0.05347679,-95.33306,-88.88226,0
9.962616,-0.1664209,-0.06364744,-140.4336,-89.07476,0
10.03957,-0.1888486,0.09721417,72.26131,-88.59096,0
9.970824,-0.3883859,0.3924121,119.6103,-86.15149,0
10.01828,-0.5226659,0.5577898,132.5486,-85.24162,0
10.0894,-0.7178445,0.6009298,144.4585,-84.37663,0
10.15746,-0.7989608,0.507567,153.3029,-84.6488,0
10.2068,-0.9054312,0.3836699,162.3192,-84.40623,0
10.28736,-1.052357,0.1839044,172.5512,-83.87093,0
10.42422,-1.200419,0.1501239,175.2138,-83.15138,0
10.56618,-1.391861,0.2512135,174.153,-82.04413,0
10.56037,-1.493591,0.1148772,177.4866,-81.75968,0
10.4422,-1.425649,-0.05028934,-88.78214,-82.29764,0
10.29235,-1.329655,-0.1705896,-152.9886,-82.68586,0
10.13996,-1.312839,0.01840473,95.1331,-82.60328,0
10.26347,-1.475631,0.08540548,157.1435,-81.53457,0
10.49645,-1.676889,0.4502104,171.0705,-80.42934,0
10.41724,-1.719274,0.2813438,175.0108,-80.45108,0
10.46567,-1.643679,0.09906637,178.2253,-81.21995,0
10.77406,-1.614006,-0.1152942,-87.86555,-81.55466,0
10.96249,-1.673027,-0.165293,-154.6819,-81.2221,0
10.76539,-1.757813,0.1310593,93.6769,-80.44641,0
10.52577,-1.678452,0.206943,155.3338,-80.9263,0
10.63107,-1.584991,-0.03625116,-94.44601,-81.68825,0
10.58916,-1.462865,-0.1221888,-156.0429,-82.29835,0
10.30395,-1.374872,-0.1364906,-171.3432,-82.45084,0
10.24162,-1.236157,-0.2011182,-172.7337,-83.24527,0
10.06982,-1.043461,-0.3232186,-167.0373,-84.04356,0
9.901173,-0.9611691,-0.3968393,-162.9619,-84.05947,0
9.952385,-0.9028875,-0.5175966,-156.7188,-84.01698,0
9.965188,-0.8990911,-0.5980641,-153.6155,-83.73837,0
9.914519,-0.9178942,-0.5068507,-157.7719,-84.00306,0
9.837209,-1.066247,-0.5002081,-161.9018,-82.90163,0
9.986672,-1.273922,-0.248952,-172.3289,-82.32084,0
10.09048,-1.408441,-0.2471901,-173.978,-81.71681,0
9.933025,-1.524549,0.07208862,88.8219,-80.94435,0
10.03756,-1.404658,6.564334e-05,-112.3501,-82.28289,0
9.759132,-1.196606,-0.3366805,-165.2287,-82.83018,0
9.794771,-1.234686,-0.3247874,-169.4017,-82.51777,0
9.871916,-1.184949,-0.3864576,-167.7379,-82.8748,0
9.972006,-1.274867,-0.09661439,93.06552,-82.56976,0
10.14248,-1.505642,0.2829028,152.3986,-80.89451,0
10.42571,-1.509467,0.4047169,166.2769,-81.48527,0
10.63478,-1.530175,0.4261921,170.1494,-81.51464,0
10.59727,-1.603587,0.693726,167.1058,-80.31456,0
10.55906,-1.317227,0.675876,163.0576,-82.27347,0
10.88719,-1.293571,0.6448166,163.5684,-82.57178,0
11.18829,-1.355892,0.8255951,160.9882,-81.74862,0
11.2492,-1.409181,1.10602,156.6386,-80.60757,0
11.36678,-1.426095,1.118665,156.7652,-80.93626,0
11.54881,-1.374658,1.100279,155.9767,-81.45891,0
11.61407,-1.356412,1.235743,152.979,-80.91224,0
11.4975,-1.290798,1.420444,147.4919,-80.33707,0
11.04279,-1.168451,1.51151,141.0531,-80.05196,0
10.66695,-1.116317,1.622264,136.6975,-79.30922,0
10.81436,-0.8293303,0.9480411,140.7067,-84.17872,0
10.57752,-0.5951932,0.4668536,150.035,-86.72292,0
10.20407,-0.3804373,-0.01077783,-76.81503,-87.99685,0
10.08557,-0.4219179,-0.643742,-108.5832,-84.54484,0
10.19062,-0.6603357,-0.9635917,-125.4737,-82.74912,0
10.11273,-0.7396923,-0.8909236,-135.0423,-83.45772,0
9.633575,-0.6428142,-1.190587,-122.3109,-81.43062,0
9.244438,-0.2486905,-2.012494,-100.1024,-75.89994,0
9.116628,0.08686645,-2.869792,-90.01474,-70.78931,0
9.149319,0.2784947,-3.473773,-86.09964,-68.05354,0
9.353217,0.2132758,-3.579877,-86.83805,-68.97953,0
9.613827,-0.5230179,-1.694467,-109.7675,-80.5265,0
9.022227,-0.1253675,-0.6893733,-94.17322,-87.70023,0
8.842006,0.1859319,-0.168752,-22.7753,-88.11036,0
9.339237,0.1919308,0.5342161,51.4901,-85.23309,0
9.817288,0.01386531,1.695771,81.30962,-78.20427,0
9.872158,0.123775,2.835502,85.68118,-71.96956,0
9.806866,0.2105089,3.371826,86.00578,-70.01459,0
10.07964,0.305814,3.423307,84.49957,-71.22703,0
10.36152,0.3853055,3.017791,81.7849,-74.43731,0
10.67979,0.4195436,2.603969,79.34071,-76.93301,0
10.41639,-0.07288357,3.283417,90.40512,-71.19127,0
10.02912,-0.5784641,4.067392,99.16131,-66.07287,0
9.835331,-0.8143939,4.150259,104.1393,-66.38261,0
9.566021,-0.4765375,3.420394,98.509,-71.35238,0
9.750084,0.08377424,2.015089,84.55632,-80.90797,0
9.894861,0.3782782,0.9544807,57.77038,-85.58958,0
9.945421,0.627878,0.1649985,9.61635,-85.87873,0
9.830568,0.8482952,-0.5171979,-20.83986,-83.10033,0
9.667181,0.7112648,-1.091769,-49.28491,-81.44754,0
9.875931,0.4094553,-1.194111,-68.81519,-82.743,0
10.2226,0.3340028,-1.463906,-75.62544,-81.28769,0
10.23745,0.4857266,-2.215497,-75.82117,-76.15834,0
10.03825,0.6888575,-3.179116,-75.10121,-70.24545,0
9.71192,0.6498576,-4.043112,-79.06279,-65.49368,0
9.680614,0.05113401,-5.26288,-88.3662,-59.60903,0
10.69272,-0.8114204,-7.855482,-97.91812,-51.45253,0
12.63007,-1.587302,-11.80404,-105.2842,-45.05703,0
14.74306,-2.874824,-16.85474,-118.5901,-39.36346,0
16.74913,-4.015522,-18.92366,-132.1428,-40.91103,0
17.34222,-4.983044,-17.76734,-145.2487,-43.98349,0
13.0344,-5.008415,-11.69852,-155.8208,-46.08266,0
8.743797,-5.635336,-4.811326,-170.962,-50.15694,0
8.170855,-6.573127,1.303898,89.25532,-46.19399,0
7.966567,-6.437671,5.420237,150.2883,-40.25804,0
7.452217,-5.32462,9.27029,155.2841,-31.98519,0
6.2624,-3.462593,11.97099,130.8071,-23.98958,0
3.598277,-1.565952,14.23532,102.8011,-10.22906,0
0.2531738,0.6289179,15.68318,88.29605,-0.1311882,0
1.503406,1.080194,13.47186,84.4267,-8.535311,0
3.678054,1.038587,11.2419,83.94711,-22.65569,0
4.23249,1.022799,8.930054,82.57978,-28.24523,0
3.455317,1.573708,5.651433,62.23212,-33.19373,0
1.908898,2.248335,1.551124,16.85072,-29.3294,0
0.8183983,1.770557,-0.822488,-19.6766,-11.28132,0
-0.194035,0.05836987,-0.09608728,108.3617,44.93245,0
-2.118895,-1.849294,1.988903,144.5706,37.04164,0
-4.370622,-2.482431,4.221406,145.7048,42.19417,0
-5.454292,-1.961959,2.36079,150.9052,66.77409,0
-4.681937,-1.463733,0.227476,-85.86794,72.62003,0
-3.073874,-1.583385,-0.1011483,-153.0793,57.17847,0
-1.887159,-2.182519,1.445351,82.46019,25.80039,0
0.600214,-3.169076,2.33835,146.504,-18.07335,0
5.908707,-3.934659,2.197083,166.4742,-58.47791,0
13.44878,-4.451067,2.510122,171.672,-71.5956,0
16.5333,-6.198051,4.096729,173.7457,-64.94949,0
18.84285,-7.450023,4.475424,175.3419,-65.07505,0
19.42024,-7.736081,3.903911,176.3145,-66.15846,0
19.56459,-7.746544,4.269202,176.0382,-65.57387,0
19.60067,-8.223211,5.615685,175.4064,-62.18787,0
19.6097,-8.699713,6.498184,175.2287,-60.35294,0
19.61195,-8.682369,6.129835,175.4694,-61.71643,0
19.61251,-8.141132,6.443565,174.5705,-62.27499,0
19.61266,-7.472515,7.407254,172.5834,-61.61809,0
17.57867,-6.702022,7.969597,170.0798,-58.40322,0
14.664,-6.055099,8.833831,166.5713,-51.65553,0
12.45212,-5.780242,9.360537,164.5681,-46.53349,0
11.1342,-5.781559,10.67016,162.5736,-40.50118,0
9.607025,-6.21464,13.0069,161.6568,-30.93299,0
7.255402,-6.655105,15.21076,161.2116,-20.47108,0
4.588132,-7.235682,16.6416,162.3942,-11.21193,0
2.357302,-7.714818,17.10345,163.9366,-4.86242,0
1.131612,-8.032124,16.24208,165.8254,-2.311782,0
0.6833333,-8.411324,14.48428,168.3603,-1.874762,0
0.6125636,-8.825749,11.85772,171.2531,-2.379106,0
1.997275,-9.873868,8.530949,174.7677,-11.01387,0
3.474713,-10.08562,4.215693,177.536,-20.64561,0
3.18866,-9.845865,0.6606755,-90.37986,-17.55158,0
2.64489,-9.999611,-3.973807,-155.2505,-12.12618,0
5.412516,-10.37742,-8.836857,-169.7585,-23.14249,0
9.61133,-10.56346,-13.83426,-171.6076,-30.36716,0
13.54126,-10.53455,-16.3675,-171.3419,-36.35778,0
14.8721,-10.52732,-14.86938,-172.3491,-40.69055,0
14.6266,-9.744405,-12.78897,-172.4081,-43.41985,0
15.08597,-8.548498,-11.23637,-171.3417,-48.53614,0
14.89376,-7.761104,-8.361247,-172.316,-54.60444,0
15.467,-7.165621,-4.512645,-175.2933,-63.87484,0
16.56919,-5.88549,-2.1858,-176.8824,-71.58801,0
17.41036,-4.484475,-0.2124589,89.69455,-77.12969,0
18.20245,-4.362269,2.825314,149.3978,-72.62069,0
19.26014,-5.374991,7.03959,162.0352,-62.53358,0
19.52456,-6.630145,8.376872,168.2275,-60.06773,0
19.59067,-7.351546,8.488532,170.9442,-59.79733,0
19.60719,-7.564219,7.733543,172.4215,-61.40747,0
19.61132,-7.931625,6.291431,174.3748,-63.14341,0
19.03281,-7.89419,4.59853,175.8831,-64.828,0
16.82318,-7.821984,2.832158,177.4188,-63.23336,0
13.17507,-7.236506,1.875213,178.0254,-58.91013,0
9.284061,-6.847724,1.402542,178.3296,-49.45472,0
6.341478,-6.540438,1.250257,178.3434,-39.30256,0
4.510486,-6.318168,1.425868,177.9538,-31.28625,0
1.863838,-4.739889,0.3385105,-90.45364,-13.11323,0
-2.493274,-3.321797,0.1833884,111.6961,54.1384,0
-6.037208,-1.981462,0.9795857,143.7517,74.68962,0
-7.58399,-0.8544958,0.3723877,155.4346,86.41032,0
-6.684999,-0.5117021,-1.833637,-33.61906,67.84823,0
-1.978306,-0.2661906,-3.060308,-76.33598,6.721087,0
1.67457,-0.2712519,-3.830254,-87.72498,-35.22597,0
3.765737,-0.3012476,-4.026331,-91.20875,-47.40164,0
6.118297,-0.8061419,-2.854308,-109.2639,-69.00195,0
8.275836,-0.919796,-2.997645,-111.6525,-70.45953,0
9.224629,-1.269631,-4.423314,-114.512,-61.91615,0
10.30399,-1.565385,-6.1139,-115.7929,-57.16471,0
11.0802,-2.136719,-6.879516,-126.5808,-56.50147,0
12.36062,-2.90444,-7.616797,-139.5553,-56.46848,0
12.97522,-3.46807,-8.117152,-147.2056,-55.51066,0
12.18435,-3.24446,-8.360755,-143.1663,-52.89417,0
11.02596,-2.482866,-9.676816,-124.7098,-45.76849,0
11.11525,-1.766342,-11.32743,-108.928,-42.94293,0
11.22915,-1.933772,-10.80994,-112.0975,-46.15466,0
11.53954,-2.733394,-8.021203,-135.7984,-56.52151,0
11.31367,-3.20983,-5.492455,-153.0198,-62.93787,0
10.03437,-3.391787,-3.477617,-163.6712,-65.1536,0
8.227741,-2.71722,-1.083087,-174.0343,-71.79018,0
7.14222,-1.789017,1.684693,56.03646,-66.14793,0
7.0935,-1.614428,1.105316,134.8155,-75.70076,0
8.207193,-1.883224,6.336652,121.9861,-45.8838,0
8.088778,-1.50151,8.998407,107.3597,-38.88565,0
5.169971,-0.1670819,11.75757,93.86614,-18.31391,0
0.9890278,0.795003,14.67038,87.55167,1.478081,0
-1.789011,1.868707,15.75772,76.47702,9.471993,0
-1.526439,2.607593,14.4799,64.02542,5.729719,0
1.049524,2.792315,12.37018,57.27221,-9.027154,0
3.742353,2.748712,9.122343,49.32507,-28.65203,0
5.164347,2.551064,6.284888,42.43053,-43.75373,0
5.325915,2.08147,4.496338,44.65036,-51.0459,0
3.822047,1.78271,3.237566,44.38885,-45.33317,0
1.91439,1.558981,1.565361,29.4733,-35.47155,0
-0.03855014,1.445588,0.3500402,6.176082,26.07813,0
-1.595198,0.4727274,0.6262054,66.75212,70.86678,0
-3.138963,0.3192948,1.733133,81.70653,59.88528,0
-5.990334,0.5969713,2.476734,77.49657,67.95575,0
-8.945945,0.8926424,2.307096,63.08799,76.09214,0
-7.136819,0.0274346,1.3507,90.83887,80.74747,0
-4.247838,-1.50508,1.061322,147.8185,55.76963,0
-0.6471641,-3.421694,1.384021,168.0781,-7.285739,0
4.496129,-5.782691,0.4321966,176.9056,-43.38601,0
15.24144,-8.066239,0.2624752,179.1153,-64.86909,0
17.80208,-10.12931,0.5450577,179.5475,-59.85039,0
19.16005,-11.51597,1.703868,179.2691,-58.20255,0
19.58441,-12.14817,1.990579,179.2346,-57.81345,0
19.61093,-11.42947,5.474105,177.605,-57.20707,0
19.61226,-10.50684,5.805581,177.0038,-58.98624,0
19.61259,-9.331673,5.265358,176.5837,-62.32708,0
19.61267,-8.172377,4.634703,176.1096,-65.45827,0
18.96132,-7.277418,4.0389,175.7616,-66.97549,0
17.97248,-6.642474,4.135954,174.7766,-66.52122,0
17.0537,-6.270055,4.262569,173.988,-65.86562,0
15.95132,-6.331377,5.095084,172.9702,-61.90496,0
14.58038,-6.702246,6.143577,172.4142,-56.29516,0
12.79932,-6.84165,7.623152,170.9327,-48.90644,0
10.54225,-7.097366,10.1173,168.8268,-36.78322,0
8.406785,-7.164887,12.98181,165.9446,-26.13829,0
6.071881,-7.39904,15.71086,164.098,-16.19634,0
3.683526,-7.759248,17.78116,163.6057,-8.182117,0
1.488307,-7.946266,18.21255,163.9235,-2.163422,0
0.4959767,-8.33599,17.4082,165.8937,-0.495114,0
0.8709851,-8.785368,14.82249,169.0349,-3.438727,0
1.851789,-9.368174,10.9403,172.7434,-9.112851,0
3.542489,-9.702418,5.793069,176.3693,-21.12527,0
5.207755,-9.36041,0.2864809,-90.13069,-31.57846,0
6.624249,-9.280294,-3.598691,-155.0866,-34.13409,0
7.642763,-8.558167,-6.963587,-168.7948,-34.53381,0
9.131004,-7.460056,-10.75507,-167.2129,-34.59795,0
10.62535,-6.749186,-13.43215,-162.9919,-35.25687,0
10.87144,-5.935808,-13.45678,-158.9547,-36.86349,0
9.564679,-5.840202,-11.4572,-161.5874,-36.68435,0
9.410371,-6.21314,-9.642882,-165.984,-40.29251,0
10.14931,-6.534422,-8.262748,-169.0611,-45.41375,0
10.61955,-6.727868,-6.983975,-171.2719,-48.7776,0
11.65828,-6.005896,-5.454014,-171.604,-57.67995,0
12.34533,-4.719281,-3.952833,-170.2487,-66.34877,0
12.75412,-3.659615,-1.850121,-173.3668,-74.80754,0
14.03786,-3.252842,0.2557303,87.82689,-77.29607,0
16.94094,-2.994927,1.705158,147.6423,-78.51045,0
18.94476,-2.849644,2.597232,159.3001,-78.39391,0
19.44572,-3.520809,4.662589,160.816,-71.58208,0
19.57096,-4.212931,5.360289,164.3086,-69.98761,0
19.60226,-5.490287,5.437748,169.7559,-67.67693,0
19.61009,-7.467012,5.740826,173.7524,-62.96587,0
19.61205,-8.232336,3.880884,176.544,-65.12788,0
15.51005,-7.0471,2.051674,177.6765,-63.55637,0
10.29517,-5.913321,2.148757,176.4011,-55.18904,0
5.504295,-4.464498,1.711545,174.8897,-42.40466,0
-0.6561593,-2.013181,0.444554,105.7698,39.05861,0
-2.022539,-2.435416,2.156385,144.7585,33.44677,0
-3.384064,-2.07231,1.867878,152.7844,55.52142,0
-3.702897,-1.272251,0.572913,167.6139,75.07338,0
-2.63698,-1.183567,0.2204412,173.6508,63.07945,0
-0.2061112,-1.067866,0.8743435,143.5901,-12.10004,0
1.345489,-0.3549534,-0.8965136,-32.34879,-51.31639,0
3.670897,0.9401698,-2.675192,-52.19495,-51.43835,0
5.507409,1.140051,-4.206231,-66.229,-51.49567,0
6.860771,1.102034,-4.736234,-71.89182,-55.46328,0
8.00536,0.5699954,-5.762969,-82.91666,-53.89106,0
9.354531,-0.1483967,-6.852836,-90.66181,-53.60674,0
10.94699,-1.040868,-8.500771,-101.1258,-51.44302,0
12.19624,-1.93556,-10.17151,-113.8622,-49.01426,0
12.72403,-2.053289,-12.23939,-112.2374,-44.56588,0
11.73369,-1.795417,-13.54645,-106.1365,-38.99205,0
11.52921,-1.82971,-13.87501,-105.9856,-39.09523,0
11.8444,-1.946022,-13.81709,-107.8198,-40.60379,0
10.88481,-1.636707,-12.16809,-104.8785,-41.58289,0
9.810433,-2.127615,-9.184946,-119.7716,-48.01971,0
8.800236,-2.498142,-5.467357,-142.1834,-59.55234,0
7.858156,-2.163409,-1.160339,96.81974,-74.65491,0
6.062215,-1.684682,2.6889,115.6171,-52.09059,0
4.769274,-1.816391,8.158296,111.1017,-23.136,0
3.862452,-1.644615,11.49906,103.9535,-15.64549,0
4.249859,-1.13121,12.74726,96.78913,-18.35508,0
5.456423,-0.9346238,14.02537,94.40235,-22.03169,0
6.632546,-0.5550776,15.11343,92.0796,-24.40496,0
6.696734,0.1718783,14.27214,89.5161,-25.63823,0
6.62659,1.222713,11.72029,79.47826,-31.01539,0
6.298407,2.462255,8.523527,50.92432,-37.75056,0
5.72076,2.637467,7.191027,44.44382,-37.26687,0
5.596101,2.18567,6.906384,54.4448,-38.00188,0
4.719922,1.253948,5.552846,73.15421,-39.8963,0
3.544853,1.089208,3.462189,69.2736,-46.88332,0
1.940261,0.5254889,0.9337819,44.61152,-76.02984,0
0.6682216,-0.1110407,-0.6984975,-59.96168,-10.76917,0
-2.524626,-1.033325,0.1521841,110.1255,68.55425,0
-7.677292,-2.095283,2.799758,140.1683,64.79213,0
-14.33984,-3.088011,4.100903,155.6076,71.07191,0
-13.68011,-2.436571,4.381298,145.5234,69.64066,0
-10.37638,-2.519716,3.005898,156.1955,68.77303,0
-4.957172,-3.40421,1.098035,172.6035,40.20486,0
2.766805,-3.77976,-1.939529,-83.70566,-47.49609,0
10.99874,-4.656551,-3.898415,-148.3124,-63.93014,0
17.37347,-5.468314,-3.222759,-168.3841,-71.63087,0
19.05289,-6.678615,-1.541907,-176.2856,-69.97081,0
19.47275,-7.967003,-0.240029,90.81349,-66.81805,0
19.57771,-8.587177,0.5307621,157.2762,-65.76401,0
19.60395,-9.320421,2.975206,172.5761,-62.31956,0
19.61052,-10.10707,5.872181,175.4623,-57.6536,0
19.61216,-9.637547,6.869364,175.5011,-58.73969,0
19.61256,-8.202158,7.107886,173.8798,-61.72221,0
19.57541,-7.092728,8.081503,170.8762,-61.17992,0
18.13139,-5.94448,6.99433,169.0568,-63.87724,0
16.83126,-4.960705,5.903719,167.0069,-66.23043,0
15.50067,-4.924852,6.148214,166.3552,-62.21453,0
14.81427,-5.461768,7.450133,166.4711,-56.39016,0
13.61377,-5.488257,8.242482,165.1371,-52.52993,0
11.50183,-5.376367,10.24699,160.8554,-41.62556,0
8.397085,-5.666224,13.79714,157.1345,-24.64002,0
5.284757,-6.110389,17.14112,155.5791,-12.41191,0
2.913932,-6.734986,18.99481,157.2981,-5.828125,0
1.385691,-7.032991,18.84097,159.1212,-2.49655,0
0.4164532,-7.495354,16.78241,163.2449,-0.3001939,0
0.842126,-8.155027,13.44859,168.3296,-3.775535,0
2.501782,-8.860435,7.874619,173.9644,-15.64941,0
6.157847,-8.79258,1.422777,-91.10369,-39.97082,0
10.04726,-8.947998,-3.257156,-155.2432,-48.01684,0
11.32307,-9.125117,-6.190469,-170.197,-45.23977,0
9.92,-8.770763,-8.038897,-172.6325,-37.68069,0
9.357344,-8.445148,-7.913826,-173.3402,-38.6506,0
10.56881,-8.080032,-10.97108,-170.3687,-37.32436,0
11.55941,-7.688879,-11.75873,-168.7854,-39.93916,0
11.68136,-7.025461,-12.14419,-166.2163,-39.87315,0
10.34895,-6.328093,-11.4361,-164.1273,-37.83871,0
8.593691,-5.805395,-8.592541,-165.9637,-40.14672,0
7.576677,-5.344321,-6.680359,-167.0977,-42.25671,0
8.396222,-4.674196,-6.082005,-164.5869,-49.60629,0
9.146987,-4.328896,-4.318126,-167.4561,-59.08431,0
9.485513,-3.861892,-2.422678,-171.469,-66.78808,0
9.586305,-3.468611,-0.8085783,-176.8645,-70.80817,0
10.71224,-3.490599,0.593329,87.24102,-71.75434,0
13.15928,-3.390153,1.911662,148.6324,-73.6562,0
15.88811,-3.169315,3.37071,157.5471,-73.59405,0
18.68155,-3.81441,4.737445,162.3536,-71.47202,0
19.37991,-4.596979,5.355659,166.3426,-69.36772,0
19.5545,-6.026234,4.671644,172.2767,-68.12092,0
19.59815,-8.055298,3.502258,176.3584,-64.70258,0
19.60906,-10.82688,3.421798,178.0477,-58.05051,0
19.61179,-12.65822,3.091035,178.7923,-55.26273,0
19.61247,-12.30262,2.026124,179.2205,-57.91019,0
15.32508,-10.84005,1.917913,179.0574,-52.86656,0
9.151785,-8.766746,2.481629,178.0131,-39.83004,0
2.496242,-6.084659,2.836241,174.8099,-2.662372,0
-2.949286,-3.32759,1.123856,174.6953,62.58496,0
-5.335985,-1.584275,0.8142724,155.3597,78.66027,0
-6.862807,-0.3601558,1.130124,105.1099,80.47937,0
-9.419045,0.02847403,1.582582,89.71871,80.38178,0
-8.226541,0.6499617,1.521519,64.77675,77.54903,0
-5.671281,0.6473163,1.269227,65.88882,74.35225,0
-2.723259,0.641268,0.5166241,40.55322,68.31051,0
4.381597,1.527233,-2.359157,-42.08828,-61.33123,0
7.903572,0.3037476,-1.817403,-81.37727,-77.67547,0
9.045372,0.3363063,-2.456502,-82.26254,-74.0609,0
9.425992,0.4970764,-4.194654,-82.62946,-63.29473,0
9.241025,1.163951,-6.879143,-75.77206,-49.29605,0
9.284565,0.3879529,-8.5271,-85.86838,-45.69133,0
11.05339,-0.8762547,-9.086332,-99.25043,-51.19436,0
13.67373,-1.82258,-10.7273,-111.9051,-51.7326,0
15.31103,-1.998109,-13.94774,-110.1562,-46.28438,0
15.1242,-1.343483,-16.65445,-100.1925,-40.56835,0
13.49373,-1.332457,-15.6899,-99.38373,-40.01421,0
11.9351,-2.223935,-11.77127,-117.6147,-46.68147,0
11.61727,-3.464939,-8.159184,-146.4756,-55.32453,0
11.59168,-3.205968,-6.44812,-149.4805,-60.12328,0
10.64615,-1.862722,-4.890889,-127.0365,-66.02108,0
5.862897,-2.503739,6.454049,120.8033,-29.55777,0
6.296026,-3.382259,10.93474,133.5597,-26.42433,0
7.790551,-3.786842,13.52375,136.541,-29.06768,0
6.848902,-1.063575,15.6625,97.80455,-22.23391,0
6.163645,0.3859276,14.42198,89.14935,-22.9223,0
7.216965,0.739325,13.41693,86.57403,-29.99681,0
8.979664,0.5457572,12.56772,87.34179,-37.89001,0
9.357491,0.6589738,11.4109,86.14585,-40.6441,0
8.415856,1.116439,9.467905,79.87066,-42.27729,0
7.941627,1.431918,6.793257,69.34235,-51.9205,0
8.295325,1.758587,4.542625,50.90151,-63.32246,0
7.636759,1.481124,3.453842,53.77203,-65.44699,0
5.897331,1.408167,2.888955,53.02647,-60.28776,0
3.472893,1.244481,2.00613,50.54304,-51.9618,0
-0.1694581,-0.004371002,0.04412988,-63.54415,60.5027,0
-2.195351,-0.7067837,0.2462628,105.075,70.9398,0
-5.167253,-1.383374,1.020443,142.6968,71.54496,0
-9.144196,-2.22589,1.213989,162.6992,74.95632,0
-8.353555,-2.318007,0.6213274,172.5591,73.56339,0
-6.094486,-2.597814,0.8753881,172.5831,61.85714,0
-3.04813,-3.075378,0.008755803,-90.70622,32.04985,0
0.9959103,-3.956126,1.309423,108.1953,-27.03508,0
6.250044,-3.063009,-0.001248419,-105.5885,-70.71442,0
12.68657,-1.141043,-2.993663,-102.2247,-74.82664,0
14.78412,-3.018242,0.2553534,105.4689,-75.92491,0
18.01276,-5.715945,5.027019,155.1671,-63.88698,0
19.21272,-7.169683,3.58751,171.5857,-67.15866,0
19.5127,-6.989036,3.057046,175.4186,-69.06367,0
19.5877,-6.658365,2.256448,176.9458,-70.76389,0
19.60645,-7.759032,4.000988,176.3418,-64.56142,0
19.61114,-9.700563,6.816361,176.0329,-56.60226,0
19.61231,-9.695732,9.522356,174.3545,-54.02713,0
19.6126,-7.950948,8.1572,172.7356,-61.47534,0
16.00566,-5.038548,4.994942,168.7224,-69.06352,0
13.93137,-4.193731,4.227721,166.8222,-67.16503,0
13.08419,-4.329088,4.705694,166.4202,-62.93079,0
12.13618,-4.161814,5.487782,162.9989,-59.13535,0
9.967054,-3.401735,6.080143,152.2856,-52.77536,0
7.381322,-2.629924,9.034837,128.2422,-32.33986,0
4.192246,-2.584215,13.45819,117.5605,-11.66879,0
1.301248,-3.425722,18.07407,123.1456,-0.9689571,0
-0.1451485,-5.688528,19.22804,146.8196,1.740447,0
0.0732476,-8.114525,19.51654,161.3268,-0.3883434,0
0.5246856,-9.70504,19.58866,167.3789,-1.748066,0
1.504845,-10.36124,13.64737,172.3826,-6.63324,0
4.084231,-10.60251,5.532507,177.0323,-24.10332,0
8.004346,-10.84777,-1.92985,-89.15932,-38.30331,0
11.18764,-11.45138,-6.138764,-154.9185,-41.42712,0
12.59757,-11.44067,-7.300527,-171.2233,-43.47834,0
13.16195,-10.2385,-11.85564,-171.9579,-38.8026,0
12.75536,-8.747438,-14.74877,-168.349,-35.41581,0
12.34128,-7.173383,-15.11292,-163.0436,-36.28479,0
11.87144,-6.796031,-12.60206,-164.8123,-40.89905,0
9.476461,-5.80991,-8.055976,-166.6993,-43.80036,0
8.1152,-5.214367,-6.203248,-167.3909,-45.58249,0
8.089123,-4.471121,-4.585463,-167.4273,-54.10206,0
8.500991,-3.511383,-3.802134,-162.9438,-61.10804,0
9.013366,-3.009284,-2.805441,-163.5519,-67.69627,0
11.87729,-2.923755,0.5999324,86.12686,-76.19649,0
13.92459,-2.943181,2.19523,144.7651,-74.62318,0
16.8803,-3.291007,4.332245,155.4027,-71.18457,0
18.9296,-4.114181,4.322416,165.1724,-72.57013,0
19.44193,-5.778043,4.427698,171.7422,-68.44552,0
19.57001,-7.950155,5.703792,174.5284,-61.56256,0
19.60203,-9.628035,5.489507,176.4311,-59.53092,0
19.61003,-10.47667,3.796506,177.9278,-60.19509,0
19.61203,-10.55235,1.394448,179.2577,-61.62332,0
19.61253,-10.2732,-0.03565735,-89.97696,-62.53839,0
16.86576,-9.925083,-0.1687273,-157.4003,-58.40326,0
11.40623,-8.84865,0.7048091,95.05991,-48.277,0
4.887825,-6.857512,1.248206,157.1662,-23.1283,0
-0.9166645,-4.416833,0.9656686,171.4204,37.56693,0
-6.091968,-1.642904,0.1606128,-86.11298,84.6918,0
-8.748693,-0.5023042,0.002444532,-139.2954,89.21474,0
-9.764821,-1.181419,1.641837,68.75602,75.55809,0
-7.998746,-0.3366547,2.173789,85.43678,72.39197,0
-7.348931,0.7705664,1.04623,39.08254,79.49775,0
-6.376639,1.835662,-0.01856419,6.553128,69.83833,0
-3.558602,2.168376,-1.25621,-11.63578,42.83712,0
0.5360966,2.265919,-2.256947,-22.44257,-28.76309,0
3.99647,2.26337,-3.342109,-32.01288,-49.87683,0
8.720418,2.963037,-3.306344,-20.80092,-65.96996,0
7.042728,1.534437,-4.337084,-60.94516,-53.49278,0
9.614861,0.81277,-4.496008,-76.33351,-66.3558,0
10.4626,0.4976793,-4.612952,-82.44681,-66.51642,0
10.16098,0.4745718,-5.773449,-84.50818,-58.4466,0
10.20588,0.2030386,-7.239725,-87.98373,-52.90236,0
10.4272,-0.502301,-8.473593,-94.05513,-49.6684,0
10.77881,-1.111388,-10.11802,-99.92493,-45.39487,0
11.44312,-0.8793901,-11.88485,-96.38187,-43.02091,0
12.48008,-0.5646126,-13.98394,-93.42725,-41.12238,0
13.09486,-0.625979,-15.05818,-93.51796,-40.75983,0
12.86609,-1.499642,-13.25636,-103.8523,-45.01791,0
12.76041,-2.937305,-10.73372,-132.12,-50.56345,0
13.09671,-3.679194,-7.528097,-151.786,-60.21779,0
11.86817,-3.564793,-3.961388,-163.9691,-68.62002,0
9.797698,-2.656323,-1.412325,-171.9336,-75.12063,0
8.121887,-1.511628,1.708326,46.42327,-68.54897,0
6.419044,-1.636659,6.46047,94.3653,-35.45274,0
4.727398,-1.696647,11.29727,101.0052,-17.72911,0
3.850187,-2.252135,15.9631,106.9384,-11.37334,0
3.573424,-2.59212,18.7003,109.6997,-9.972417,0
4.594193,-2.079164,19.3846,103.0663,-14.05847,0
5.56585,-0.2001651,15.62365,92.34025,-22.27809,0
5.815948,1.449327,11.70083,74.19936,-29.135,0
7.06001,1.867088,8.999897,65.09512,-41.85323,0
8.4969,1.395124,6.807337,70.79893,-55.36005,0
9.41816,0.9305719,5.059702,76.07719,-64.95692,0
8.617772,0.737221,3.572337,76.621,-69.33796,0
6.566359,0.5039311,2.527127,80.59007,-69.32403,0
3.203806,0.1008437,2.084464,87.80441,-47.07643,0
-0.4093174,-0.7253713,2.300606,106.8139,32.07359,0
-4.437032,-1.134834,2.516251,120.0408,63.48479,0
-0.2940322,0.1310871,1.528684,86.58427,-39.45184,0
-7.703231,0.242863,0.577897,52.72759,87.84476,0
-8.075913,-0.1008929,0.3689306,104.2335,87.42503,0
-7.217389,-1.831648,0.8248584,154.1645,69.4446,0
-4.438568,-3.831941,1.306949,170.4397,36.58408,0
7.911657,-5.476065,-0.5849512,-89.42101,-60.84639,0
7.16196,-6.554857,-0.315029,-157.154,-44.97491,0
16.50002,-7.25192,-0.8706396,-173.505,-68.92423,0
18.83453,-8.848342,1.47923,90.54244,-63.80274,0
19.41816,-9.026583,1.781189,156.6783,-64.68103,0
19.56407,-8.900555,1.858475,173.1623,-65.21352,0
19.60054,-9.596288,4.375547,176.0177,-60.43465,0
19.60966,-9.978516,5.859545,176.3831,-58.67256,0
19.61194,-10.11358,6.692027,176.2504,-57.86536,0
19.61251,-8.759304,6.192661,175.4198,-62.37692,0
19.26116,-7.023719,5.899028,173.1363,-65.63148,0
16.22665,-5.839241,5.787911,170.3462,-62.50378,0
10.87229,-4.61481,8.527918,158.1169,-45.33674,0
8.747869,-4.249405,10.12442,150.8682,-35.12674,0
6.913122,-4.513593,13.01232,147.8326,-23.18521,0
5.15977,-5.019575,16.10276,147.6762,-14.33711,0
2.748011,-5.742226,18.50762,150.6717,-5.493298,0
0.6115855,-7.007463,19.33643,157.996,0.2747113,0
0.1080051,-7.594914,17.0176,163.2613,0.1903522,0
1.698752,-7.827969,11.24487,169.4563,-10.33592,0
4.448743,-8.573967,6.679051,174.5264,-27.70061,0
6.588923,-8.83768,1.436328,-91.20108,-39.27067,0
7.720123,-8.598348,-3.738594,-154.5854,-38.66361,0
9.092883,-8.121922,-8.153167,-167.2188,-37.39926,0
10.0466,-8.180586,-10.0451,-170.0912,-37.59384,0
11.3283,-8.276056,-10.22001,-171.2321,-41.65269,0
12.7746,-8.188593,-10.02491,-171.5081,-45.83597,0
12.95481,-7.645989,-10.64951,-169.7282,-44.64664,0
12.00507,-6.070225,-10.43755,-163.7379,-44.83339,0
9.689518,-4.478861,-8.345366,-157.6196,-47.64643,0
11.47246,-5.704013,-4.86601,-170.236,-59.35788,0
16.27155,-3.976822,0.3330404,172.801,-78.71648,0
18.5139,-2.956852,1.614951,168.0711,-80.22184,0
19.338,-3.901355,4.032749,166.62,-71.88032,0
19.54403,-5.65301,6.501084,169.0183,-63.87292,0
19.59553,-8.098463,7.071482,173.429,-59.62085,0
19.60841,-9.984737,5.899664,176.2923,-58.62885,0
19.61163,-10.582,3.755393,177.9673,-60.26743,0
19.61243,-10.87856,3.124156,178.4691,-59.92526,0
18.60213,-11.02094,3.370368,178.4228,-57.59377,0
13.65213,-9.923474,3.135638,178.1792,-50.10163,0
8.004514,-8.225157,2.892004,177.4939,-36.88372,0
2.97078,-6.5939,3.563721,174.9437,-10.26645,0
-1.900503,-4.812412,3.087012,171.7523,34.46164,0
-6.045236,-2.528294,1.186548,170.9818,76.00187,0
-8.733418,-1.265938,1.937862,129.9911,76.30887,0
-8.681816,-1.82124,4.187099,131.2056,58.40741,0
-8.758698,-0.9886185,2.292957,119.6598,78.37388,0
-7.11335,0.05451479,-0.3676821,-27.18569,78.65245,0
-4.667541,0.6852023,-1.921689,-59.53214,55.99554,0
-1.353633,0.3795961,-2.647774,-81.23174,4.902196,0
3.054196,-0.01847304,-4.288301,-89.51083,-35.01815,0
9.195927,0.544851,-5.505538,-82.79559,-62.08584,0
10.44944,0.06259105,-7.648595,-88.74924,-52.41791,0
11.83123,-0.3345042,-9.256362,-92.37765,-51.42572,0
13.39054,-0.9581082,-10.69978,-98.63303,-51.05676,0
14.46272,-0.9200788,-12.12187,-97.50988,-49.56496,0
14.08073,-0.0612285,-14.48852,-90.98289,-42.4035,0
13.2167,-0.2056462,-15.56321,-91.14806,-39.07407,0
13.28261,-1.064159,-15.05796,-97.60307,-41.66588,0
13.67438,-2.217913,-13.0103,-115.8095,-47.61406,0
12.80087,-2.806225,-10.4262,-130.6477,-51.29216,0
10.56598,-3.405807,-7.250104,-149.1531,-53.88784,0
7.816562,-3.772976,-1.855622,-172.128,-60.55093,0
4.430344,-4.293929,5.696974,75.23143,-19.44724,0
2.368133,-3.962685,11.4781,122.2593,-6.871154,0
1.78255,-3.72904,15.50911,126.8432,-5.259478,0
3.334841,-3.765798,18.5868,126.3513,-10.91666,0
4.428604,-3.512822,19.35623,122.4734,-13.5359,0
4.394989,-2.280609,19.4377,105.9584,-12.63583,0
4.69005,-0.7066217,16.13791,94.25594,-17.66134,0
5.419228,0.3279226,12.80623,88.89223,-25.79616,0
5.781087,0.5650108,9.947821,87.03884,-33.20207,0
4.937813,0.8056437,6.683392,82.50703,-39.42105,0
3.103726,0.9699496,3.940551,73.38828,-37.95671,0
0.7902968,0.5423612,2.486302,82.42211,-0.5376466,0
-3.063329,-0.4192659,2.832022,97.22234,55.05057,0
-7.697045,-1.210938,3.900674,115.1228,64.01154,0
-11.8165,-1.606377,3.683011,131.0882,73.10097,0
-10.42224,-2.242137,1.111092,166.0949,76.08418,0
-7.261684,-3.494628,1.170212,173.2305,56.62859,0
